Packet number,Gyroscope X (deg/s),Gyroscope Y (deg/s),Gyroscope Z (deg/s),Accelerometer X (g),Accelerometer Y (g),Accelerometer Z (g),Magnetometer X (G),Magnetometer Y (G),Magnetometer Z (G),,,,,
0,-0.2,0.15,0,0.0395,-0.0161,-1.0065,0,0,0,,,,,
2,-0.15,0.12,0,0.0395,-0.0163,-1.0064,0,0,0,,,,,
4,-0.09,0.09,0,0.0395,-0.0163,-1.0063,0,0,0,,,,,
6,-0.03,0.05,0.01,0.0396,-0.0163,-1.0066,0,0,0,,,,,
8,0.01,0.03,0.01,0.0396,-0.0162,-1.0064,0,0,0,,,,,
10,0.03,0.02,0.01,0.0397,-0.0162,-1.0063,0,0,0,,,,,
12,0.04,0.01,0.01,0.0398,-0.0164,-1.0062,0,0,0,,,,,
15,0.04,0.02,0.02,0.0396,-0.0163,-1.0063,0,0,0,,,,,
18,0.04,0.02,0.02,0.0396,-0.0163,-1.0064,0,0,0,,,,,
20,0.05,0.01,0.02,0.0395,-0.0164,-1.0063,0,0,0,,,,,
22,0.06,0.01,0.01,0.0396,-0.0163,-1.0063,0,0,0,,,,,
24,0.08,0,0.01,0.0395,-0.0163,-1.0066,0,0,0,,,,,
26,0.09,0,0.01,0.0393,-0.0163,-1.0065,0,0,0,,,,,
28,0.09,0,0.01,0.0392,-0.0163,-1.0065,0,0,0,,,,,
30,0.09,0.01,0.01,0.0392,-0.0161,-1.0065,0,0,0,,,,,
32,0.07,0.02,0.01,0.0392,-0.0161,-1.0066,0,0,0,,,,,¨‹¡ø
34,0.05,0.03,0.01,0.0393,-0.0158,-1.0064,0,0,0,,,,,
36,0.03,0.04,0,0.0394,-0.0158,-1.0066,0,0,0,,,,,
38,0.03,0.04,0,0.0394,-0.0159,-1.0068,0,0,0,,,,,
40,0.03,0.04,0.01,0.0392,-0.0161,-1.0071,0,0,0,,,,,
42,0.03,0.05,0.01,0.0391,-0.0163,-1.0074,0,0,0,,,,,
44,0.04,0.04,0.01,0.0392,-0.0163,-1.0076,0,0,0,,,,,
46,0.03,0.05,0.01,0.0392,-0.0164,-1.0079,0,0,0,,,,,
48,0.03,0.05,0.01,0.0393,-0.0165,-1.0079,0,0,0,,,,,
51,0.02,0.06,0.01,0.0392,-0.0165,-1.0079,0,0,0,,,,,
53,0.01,0.06,0.02,0.039,-0.0165,-1.0078,0,0,0,,,,,
55,0,0.07,0.02,0.039,-0.0165,-1.0076,0,0,0,,,,,
57,-0.01,0.07,0.02,0.039,-0.0166,-1.0075,0,0,0,,,,,
59,-0.02,0.07,0.01,0.0391,-0.0166,-1.0074,0,0,0,,,,,
61,-0.01,0.07,0.01,0.0391,-0.0165,-1.0074,0,0,0,,,,,
63,0.01,0.06,0.01,0.039,-0.0165,-1.0073,0,0,0,,,,,
65,0.03,0.04,0.01,0.0389,-0.0166,-1.0073,0,0,0,,,,,
67,0.05,0.02,0.01,0.0389,-0.0166,-1.007,0,0,0,,,,,
69,0.05,0.02,0.01,0.0388,-0.0165,-1.0066,0,0,0,,,,,
71,0.05,0.02,0,0.0389,-0.0164,-1.0065,0,0,0,,,,,
73,0.04,0.01,0,0.0389,-0.0163,-1.0061,0,0,0,,,,,
75,0.04,0.02,0,0.0389,-0.0162,-1.0059,0,0,0,,,,,
77,0.04,0.02,0,0.0388,-0.0162,-1.0057,0,0,0,,,,,
79,0.05,0.01,0,0.0387,-0.0162,-1.0057,0,0,0,,,,,
81,0.05,0.01,0,0.0388,-0.0161,-1.0058,0,0,0,,,,,
84,0.04,0.01,0,0.0388,-0.0159,-1.0058,0,0,0,,,,,
86,0.04,0.01,0,0.0388,-0.0161,-1.006,0,0,0,,,,,
88,0.04,0.01,0,0.0389,-0.016,-1.0064,0,0,0,,,,,
90,0.04,0.01,0,0.0387,-0.0159,-1.0067,0,0,0,,,,,
92,0.04,0.01,0,0.0388,-0.0158,-1.0068,0,0,0,,,,,
94,0.04,0.01,0,0.0389,-0.0158,-1.0069,0,0,0,,,,,
96,0.04,0.01,0,0.039,-0.0158,-1.0069,0,0,0,,,,,
98,0.05,0.01,0,0.0389,-0.0159,-1.0069,0,0,0,,,,,
100,0.05,0,-0.01,0.0389,-0.0161,-1.007,0,0,0,,,,,
102,0.05,0,-0.01,0.039,-0.0161,-1.0068,0,0,0,,,,,
104,0.05,0.01,-0.01,0.0391,-0.0161,-1.007,0,0,0,,,,,
106,0.04,0.01,-0.01,0.039,-0.0161,-1.0069,0,0,0,,,,,
108,0.04,0.01,-0.01,0.039,-0.0161,-1.007,0,0,0,,,,,
110,0.04,0.01,-0.01,0.039,-0.016,-1.007,0,0,0,,,,,
112,0.04,0,0,0.0391,-0.0159,-1.0069,0,0,0,,,,,
114,0.04,0.01,0,0.0393,-0.0159,-1.0069,0,0,0,,,,,
117,0.04,0.01,0,0.0393,-0.0156,-1.0069,0,0,0,,,,,
119,0.04,0.01,0,0.0393,-0.0157,-1.0066,0,0,0,,,,,
121,0.04,0.01,0,0.0393,-0.0159,-1.0065,0,0,0,,,,,
123,0.04,0.01,0.01,0.0392,-0.016,-1.0066,0,0,0,,,,,
125,0.04,0.01,0.01,0.0391,-0.016,-1.0064,0,0,0,,,,,
127,0.04,0.01,0.01,0.039,-0.016,-1.0064,0,0,0,,,,,
129,0.04,0.01,0.01,0.0389,-0.0159,-1.0065,0,0,0,,,,,
131,0.04,0.02,0.01,0.039,-0.0159,-1.0065,0,0,0,,,,,
133,0.04,0.02,0.01,0.039,-0.0159,-1.0065,0,0,0,,,,,
135,0.04,0.02,0.01,0.039,-0.0158,-1.0068,0,0,0,,,,,
137,0.05,0.02,0.02,0.0391,-0.0159,-1.0068,0,0,0,,,,,
139,0.05,0.02,0.02,0.0391,-0.0159,-1.0067,0,0,0,,,,,
141,0.05,0.02,0.02,0.0392,-0.0161,-1.0066,0,0,0,,,,,
143,0.04,0.02,0.01,0.0392,-0.0164,-1.0067,0,0,0,,,,,
145,0.05,0.02,0.01,0.0391,-0.0166,-1.0068,0,0,0,,,,,
149,0.04,0.02,0,0.039,-0.0167,-1.007,0,0,0,,,,,
152,0.05,0.02,0,0.039,-0.0167,-1.0068,0,0,0,,,,,
154,0.05,0.01,0,0.0392,-0.0166,-1.0067,0,0,0,,,,,
156,0.05,0.01,0,0.0393,-0.0165,-1.0066,0,0,0,,,,,
158,0.05,0.01,0,0.0392,-0.0166,-1.0067,0,0,0,,,,,
160,0.04,0.01,0,0.0391,-0.0166,-1.0069,0,0,0,,,,,
162,0.04,0.01,0,0.0391,-0.0167,-1.0069,0,0,0,,,,,
164,0.04,0.01,0,0.039,-0.0166,-1.0071,0,0,0,,,,,
166,0.04,0.02,0,0.039,-0.0167,-1.0069,0,0,0,,,,,
168,0.04,0.01,0,0.0389,-0.0168,-1.0068,0,0,0,,,,,
170,0.05,0.01,0,0.0387,-0.0168,-1.0069,0,0,0,,,,,
172,0.05,0.01,0.01,0.0387,-0.0167,-1.0068,0,0,0,,,,,
174,0.05,0.01,0.01,0.0386,-0.0165,-1.007,0,0,0,,,,,
176,0.05,0.01,0.01,0.0386,-0.0163,-1.0071,0,0,0,,,,,
178,0.05,0.01,0.02,0.0385,-0.0163,-1.007,0,0,0,,,,,
180,0.04,0.01,0.02,0.0386,-0.0164,-1.0068,0,0,0,,,,,
182,0.04,0.01,0.01,0.0385,-0.0164,-1.0069,0,0,0,,,,,
185,0.03,0.01,0.01,0.0384,-0.0164,-1.0069,0,0,0,,,,,
187,0.03,0.01,0,0.0382,-0.0165,-1.0069,0,0,0,,,,,
189,0.04,0.02,0.01,0.0382,-0.0163,-1.007,0,0,0,,,,,
191,0.04,0.02,0.01,0.0383,-0.0163,-1.0069,0,0,0,,,,,
193,0.04,0.02,0.01,0.0383,-0.0163,-1.0068,0,0,0,,,,,
195,0.04,0.01,0.01,0.0384,-0.0163,-1.0066,0,0,0,,,,,
197,0.03,0,0.01,0.0385,-0.0162,-1.0066,0,0,0,,,,,
199,0.03,0,0.01,0.0386,-0.0162,-1.0065,0,0,0,,,,,
201,0.03,0,0,0.0388,-0.0162,-1.0064,0,0,0,,,,,
203,0.03,0,0,0.0389,-0.0163,-1.0063,0,0,0,,,,,
205,0.03,0,0,0.039,-0.0163,-1.0062,0,0,0,,,,,
207,0.03,0,0,0.039,-0.0164,-1.006,0,0,0,,,,,
209,0.03,0,-0.01,0.0391,-0.0164,-1.0059,0,0,0,,,,,
211,0.04,0,-0.01,0.0391,-0.0163,-1.006,0,0,0,,,,,
213,0.04,0.01,0,0.0391,-0.0163,-1.006,0,0,0,,,,,
215,0.04,0.01,0,0.0391,-0.0164,-1.006,0,0,0,,,,,
218,0.04,0.01,0.01,0.0393,-0.0164,-1.0059,0,0,0,,,,,
220,0.04,0.01,0,0.0393,-0.0165,-1.0057,0,0,0,,,,,
222,0.04,0.01,0,0.0394,-0.0166,-1.0056,0,0,0,,,,,
224,0.04,0.02,0,0.0395,-0.0166,-1.0057,0,0,0,,,,,
226,0.04,0.02,0,0.0394,-0.0167,-1.0059,0,0,0,,,,,
228,0.04,0.02,0.01,0.0391,-0.0167,-1.0059,0,0,0,,,,,
230,0.04,0.02,0.01,0.0389,-0.0168,-1.0061,0,0,0,,,,,
232,0.04,0.02,0.01,0.0389,-0.0167,-1.0061,0,0,0,,,,,
234,0.04,0.02,0.01,0.039,-0.0166,-1.0061,0,0,0,,,,,
236,0.04,0.03,0.01,0.0391,-0.0166,-1.0061,0,0,0,,,,,
238,0.04,0.03,0.01,0.039,-0.0167,-1.0061,0,0,0,,,,,
240,0.04,0.02,0.02,0.039,-0.0168,-1.0059,0,0,0,,,,,
242,0.04,0.02,0.02,0.0389,-0.0168,-1.0057,0,0,0,,,,,
244,0.04,0.02,0.02,0.0389,-0.0166,-1.0057,0,0,0,,,,,
246,0.04,0.03,0.02,0.0389,-0.0165,-1.0057,0,0,0,,,,,
248,0.04,0.04,0.02,0.0389,-0.0163,-1.0058,0,0,0,,,,,
251,0.04,0.04,0.03,0.0389,-0.0163,-1.0057,0,0,0,,,,,
253,0.04,0.04,0.03,0.0388,-0.0162,-1.0058,0,0,0,,,,,
255,0.04,0.04,0.04,0.0386,-0.0163,-1.0057,0,0,0,,,,,
257,0.04,0.04,0.04,0.0385,-0.0163,-1.0058,0,0,0,,,,,
259,0.05,0.04,0.03,0.0386,-0.0164,-1.0058,0,0,0,,,,,
261,0.05,0.04,0.04,0.0386,-0.0164,-1.0057,0,0,0,,,,,
263,0.06,0.04,0.04,0.0385,-0.0166,-1.0059,0,0,0,,,,,
265,0.07,0.04,0.04,0.0383,-0.0166,-1.0058,0,0,0,,,,,
267,0.07,0.04,0.04,0.0382,-0.0167,-1.0058,0,0,0,,,,,
269,0.07,0.04,0.03,0.0382,-0.0167,-1.0059,0,0,0,,,,,
271,0.07,0.04,0.02,0.0382,-0.0167,-1.006,0,0,0,,,,,
273,0.07,0.04,0.02,0.0383,-0.0168,-1.006,0,0,0,,,,,
275,0.07,0.04,0.02,0.0383,-0.017,-1.0062,0,0,0,,,,,
277,0.07,0.04,0.02,0.0382,-0.0172,-1.0065,0,0,0,,,,,
279,0.07,0.04,0.02,0.0382,-0.0173,-1.0066,0,0,0,,,,,
282,0.07,0.03,0.02,0.0383,-0.0173,-1.0068,0,0,0,,,,,
285,0.07,0.02,0.02,0.0384,-0.0174,-1.0065,0,0,0,,,,,
287,0.07,0.02,0.01,0.0388,-0.0173,-1.0067,0,0,0,,,,,
289,0.06,0.02,0.01,0.039,-0.0173,-1.0066,0,0,0,,,,,
291,0.06,0.01,0.01,0.0392,-0.0172,-1.0067,0,0,0,,,,,
293,0.06,0,0.01,0.0393,-0.0172,-1.0068,0,0,0,,,,,
295,0.06,0,0.01,0.0393,-0.0171,-1.0069,0,0,0,,,,,
297,0.06,-0.01,0.01,0.0394,-0.0171,-1.0071,0,0,0,,,,,
299,0.06,-0.02,0.01,0.0394,-0.0171,-1.0073,0,0,0,,,,,
301,0.07,-0.03,0.01,0.0394,-0.017,-1.0074,0,0,0,,,,,
303,0.07,-0.04,0.01,0.0394,-0.017,-1.0073,0,0,0,,,,,
305,0.07,-0.04,0,0.0394,-0.0169,-1.0074,0,0,0,,,,,
307,0.06,-0.05,0,0.0395,-0.0167,-1.0072,0,0,0,,,,,
309,0.06,-0.05,-0.01,0.0394,-0.0166,-1.0072,0,0,0,,,,,
311,0.07,-0.06,0,0.0393,-0.0166,-1.0071,0,0,0,,,,,
313,0.07,-0.06,-0.01,0.0392,-0.0166,-1.0069,0,0,0,,,,,
315,0.07,-0.06,-0.01,0.0392,-0.0164,-1.0072,0,0,0,,,,,
318,0.07,-0.06,-0.01,0.0391,-0.0165,-1.0072,0,0,0,,,,,
320,0.06,-0.06,0,0.039,-0.0166,-1.0072,0,0,0,,,,,
322,0.06,-0.05,0,0.0388,-0.0166,-1.0072,0,0,0,,,,,
324,0.05,-0.04,0,0.0388,-0.0165,-1.0071,0,0,0,,,,,
326,0.05,-0.04,0.01,0.0387,-0.0165,-1.0069,0,0,0,,,,,
328,0.04,-0.02,0.01,0.0387,-0.0164,-1.0066,0,0,0,,,,,
330,0.04,-0.02,0.01,0.0385,-0.0163,-1.0064,0,0,0,,,,,
332,0.03,-0.01,0.01,0.0385,-0.0162,-1.0062,0,0,0,,,,,
334,0.03,0,0,0.0385,-0.0161,-1.0061,0,0,0,,,,,
336,0.02,0.01,0,0.0385,-0.0162,-1.0059,0,0,0,,,,,
338,0.02,0.01,0.01,0.0385,-0.0162,-1.0059,0,0,0,,,,,
340,0.03,0.01,0,0.0386,-0.0163,-1.0058,0,0,0,,,,,
342,0.02,0.01,0,0.0387,-0.0164,-1.0057,0,0,0,,,,,
344,0.02,0.02,0,0.0387,-0.0164,-1.0057,0,0,0,,,,,
346,0.03,0.03,0,0.0386,-0.0165,-1.0055,0,0,0,,,,,
348,0.02,0.03,0,0.0384,-0.0165,-1.0054,0,0,0,,,,,
351,0.02,0.04,0,0.0385,-0.0165,-1.0053,0,0,0,,,,,
353,0.03,0.04,0,0.0385,-0.0165,-1.0052,0,0,0,,,,,
355,0.03,0.04,-0.01,0.0384,-0.0165,-1.005,0,0,0,,,,,
357,0.04,0.04,-0.02,0.0385,-0.0164,-1.0053,0,0,0,,,,,
359,0.04,0.04,-0.02,0.0385,-0.0163,-1.0053,0,0,0,,,,,
361,0.04,0.03,-0.02,0.0385,-0.0164,-1.0051,0,0,0,,,,,
363,0.04,0.03,-0.02,0.0385,-0.0165,-1.0054,0,0,0,,,,,
365,0.04,0.02,-0.01,0.0385,-0.0165,-1.0055,0,0,0,,,,,
367,0.04,0.02,0,0.0385,-0.0167,-1.0056,0,0,0,,,,,
369,0.05,0.02,0,0.0385,-0.0168,-1.0057,0,0,0,,,,,
371,0.04,0.02,0,0.0385,-0.0169,-1.0057,0,0,0,,,,,
373,0.05,0.02,0,0.0383,-0.0169,-1.0059,0,0,0,,,,,
375,0.04,0.02,0,0.0382,-0.0168,-1.0062,0,0,0,,,,,
377,0.04,0.02,0,0.0383,-0.0168,-1.0062,0,0,0,,,,,
379,0.05,0.02,0,0.0382,-0.0166,-1.0061,0,0,0,,,,,
381,0.05,0.01,0,0.0382,-0.0164,-1.006,0,0,0,,,,,
384,0.04,0.01,0,0.0382,-0.0162,-1.0061,0,0,0,,,,,
386,0.04,0,-0.01,0.0382,-0.0162,-1.0062,0,0,0,,,,,
388,0.04,0,0,0.0382,-0.0163,-1.006,0,0,0,,,,,
390,0.04,0,0,0.0383,-0.0164,-1.0062,0,0,0,,,,,
392,0.03,0,0,0.0385,-0.0164,-1.0064,0,0,0,,,,,
394,0.03,-0.01,0,0.0387,-0.0164,-1.0062,0,0,0,,,,,
396,0.03,0,0,0.0387,-0.0164,-1.0061,0,0,0,,,,,
398,0.03,0,0,0.0387,-0.0164,-1.0062,0,0,0,,,,,
400,0.03,0,0,0.0388,-0.0164,-1.0063,0,0,0,,,,,
402,0.03,0,0,0.0388,-0.0162,-1.0065,0,0,0,,,,,
404,0.03,0,0,0.0389,-0.0161,-1.0065,0,0,0,,,,,
406,0.03,0,0,0.039,-0.0161,-1.0062,0,0,0,,,,,
408,0.03,0.01,0,0.0391,-0.016,-1.0063,0,0,0,,,,,
410,0.03,0.01,0,0.0392,-0.0161,-1.0063,0,0,0,,,,,
412,0.03,0.01,0.01,0.0391,-0.0162,-1.0064,0,0,0,,,,,
416,0.04,0.01,0.02,0.0392,-0.0163,-1.0064,0,0,0,,,,,
419,0.04,0.01,0.02,0.0392,-0.0164,-1.0065,0,0,0,,,,,
421,0.04,0.01,0.02,0.0393,-0.0164,-1.0066,0,0,0,,,,,
423,0.04,0.02,0.02,0.0392,-0.0164,-1.0066,0,0,0,,,,,
425,0.04,0.02,0.02,0.039,-0.0164,-1.0066,0,0,0,,,,,
427,0.04,0.02,0.03,0.0389,-0.0164,-1.0067,0,0,0,,,,,
429,0.04,0.03,0.02,0.0389,-0.0163,-1.0066,0,0,0,,,,,
431,0.04,0.03,0.02,0.0389,-0.0162,-1.0069,0,0,0,,,,,
433,0.04,0.02,0.02,0.0388,-0.0161,-1.0067,0,0,0,,,,,
435,0.04,0.03,0.02,0.0388,-0.0161,-1.0069,0,0,0,,,,,
437,0.04,0.03,0.02,0.0388,-0.0162,-1.0067,0,0,0,,,,,
439,0.04,0.02,0.02,0.0388,-0.0161,-1.0064,0,0,0,,,,,
441,0.04,0.02,0.02,0.0388,-0.0162,-1.0065,0,0,0,,,,,
443,0.04,0.02,0.02,0.0389,-0.0162,-1.0067,0,0,0,,,,,
445,0.04,0.02,0.02,0.0389,-0.0162,-1.007,0,0,0,,,,,
447,0.03,0.02,0.02,0.0389,-0.0161,-1.007,0,0,0,,,,,
449,0.03,0.02,0.02,0.0388,-0.016,-1.0068,0,0,0,,,,,
452,0.03,0.02,0.01,0.0388,-0.016,-1.0067,0,0,0,,,,,
454,0.03,0.02,0.01,0.0388,-0.0158,-1.0067,0,0,0,,,,,
456,0.03,0.02,0.01,0.0388,-0.0158,-1.0069,0,0,0,,,,,
458,0.04,0.02,0,0.0386,-0.0157,-1.007,0,0,0,,,,,
460,0.04,0.01,0.01,0.0387,-0.0158,-1.0074,0,0,0,,,,,
462,0.04,0.02,0.01,0.0385,-0.0159,-1.0072,0,0,0,,,,,
464,0.04,0.02,0.01,0.0386,-0.0159,-1.0073,0,0,0,,,,,
466,0.04,0.01,0.01,0.0387,-0.0159,-1.0069,0,0,0,,,,,
468,0.04,0.01,0.01,0.0387,-0.0159,-1.0068,0,0,0,,,,,
470,0.04,0.01,0,0.0386,-0.0159,-1.0072,0,0,0,,,,,
472,0.04,0.01,0,0.0386,-0.0159,-1.0071,0,0,0,,,,,
474,0.04,0.01,0,0.0385,-0.0159,-1.0069,0,0,0,,,,,
476,0.04,0.01,0,0.0384,-0.0157,-1.0069,0,0,0,,,,,
478,0.04,0.01,0,0.0384,-0.0157,-1.0068,0,0,0,,,,,
480,0.05,0.01,0,0.0385,-0.0158,-1.0069,0,0,0,,,,,
482,0.04,0.01,0,0.0385,-0.0159,-1.007,0,0,0,,,,,
485,0.05,0.01,0,0.0385,-0.0162,-1.007,0,0,0,,,,,
487,0.05,0.01,0,0.0385,-0.0163,-1.0067,0,0,0,,,,,
489,0.05,0.01,0,0.0386,-0.0162,-1.0066,0,0,0,,,,,
491,0.05,0.01,0.01,0.0386,-0.0161,-1.0063,0,0,0,,,,,
493,0.05,0.01,0.01,0.0386,-0.016,-1.0064,0,0,0,,,,,
495,0.05,0.01,0.01,0.0386,-0.0161,-1.0063,0,0,0,,,,,
497,0.05,0.02,0.01,0.0384,-0.0161,-1.0063,0,0,0,,,,,
499,0.05,0.01,0.01,0.0384,-0.0161,-1.0064,0,0,0,,,,,
501,0.05,0.01,0.01,0.0384,-0.016,-1.0064,0,0,0,,,,,
503,0.05,0.01,0.01,0.0384,-0.016,-1.0064,0,0,0,,,,,
505,0.04,0.02,0.01,0.0384,-0.0159,-1.0063,0,0,0,,,,,
507,0.04,0.02,0.01,0.0384,-0.0161,-1.0063,0,0,0,,,,,
509,0.04,0.02,0.01,0.0384,-0.0161,-1.0063,0,0,0,,,,,
511,0.04,0.02,0,0.0384,-0.0161,-1.0063,0,0,0,,,,,
513,0.04,0.01,0,0.0384,-0.0162,-1.006,0,0,0,,,,,
515,0.04,0.01,0.01,0.0383,-0.0162,-1.006,0,0,0,,,,,
518,0.04,0.01,0.01,0.0384,-0.0162,-1.0064,0,0,0,,,,,
520,0.04,0.01,0.01,0.0385,-0.0164,-1.0064,0,0,0,,,,,
522,0.04,0.01,0.01,0.0385,-0.0164,-1.0064,0,0,0,,,,,
524,0.03,0,0.01,0.0384,-0.0164,-1.0063,0,0,0,,,,,
526,0.03,0.01,0.01,0.0385,-0.0165,-1.0063,0,0,0,,,,,
528,0.03,0,0.02,0.0386,-0.0166,-1.0062,0,0,0,,,,,
530,0.02,0.01,0.02,0.0386,-0.0167,-1.0062,0,0,0,,,,,
532,0.03,0.01,0.02,0.0387,-0.0169,-1.0065,0,0,0,,,,,
534,0.03,0.02,0.02,0.0386,-0.0171,-1.0064,0,0,0,,,,,
536,0.04,0.02,0.02,0.0387,-0.0173,-1.0064,0,0,0,,,,,
538,0.04,0.01,0.02,0.0387,-0.0175,-1.0063,0,0,0,,,,,
540,0.04,0,0.02,0.0388,-0.0175,-1.0064,0,0,0,,,,,
542,0.04,0,0.02,0.0387,-0.0175,-1.0064,0,0,0,,,,,
544,0.04,0,0.03,0.0387,-0.0175,-1.0066,0,0,0,,,,,
546,0.04,0,0.02,0.0387,-0.0175,-1.0065,0,0,0,,,,,
549,0.04,0,0.02,0.0387,-0.0175,-1.0064,0,0,0,,,,,
552,0.04,0.01,0.01,0.0387,-0.0174,-1.0063,0,0,0,,,,,
554,0.04,0.01,0.01,0.0388,-0.0176,-1.0065,0,0,0,,,,,
556,0.04,0.02,0.01,0.0389,-0.0177,-1.0062,0,0,0,,,,,
558,0.04,0.02,0.01,0.0388,-0.0177,-1.0064,0,0,0,,,,,
560,0.04,0.02,0,0.0388,-0.0176,-1.0064,0,0,0,,,,,
562,0.04,0.01,0.01,0.0388,-0.0176,-1.0064,0,0,0,,,,,
564,0.04,0.01,0,0.0386,-0.0175,-1.006,0,0,0,,,,,
566,0.04,0,0.01,0.0386,-0.0172,-1.0062,0,0,0,,,,,
568,0.04,0,0.01,0.0385,-0.0171,-1.0064,0,0,0,,,,,
570,0.03,0.01,0.01,0.0384,-0.0169,-1.0066,0,0,0,,,,,
572,0.03,0.01,0.02,0.0385,-0.017,-1.0063,0,0,0,,,,,
574,0.02,0.02,0.02,0.0385,-0.017,-1.0064,0,0,0,,,,,
576,0.02,0.02,0.02,0.0384,-0.017,-1.0063,0,0,0,,,,,
578,0.01,0.02,0.02,0.0383,-0.0169,-1.0064,0,0,0,,,,,
580,0.02,0.02,0.02,0.0383,-0.0168,-1.0063,0,0,0,,,,,
582,0.02,0.02,0.02,0.0383,-0.0168,-1.0064,0,0,0,,,,,
585,0.02,0.02,0.02,0.0382,-0.0167,-1.0063,0,0,0,,,,,
587,0.02,0.02,0.02,0.0379,-0.0165,-1.0066,0,0,0,,,,,
589,0.03,0.02,0.02,0.0379,-0.0165,-1.0063,0,0,0,,,,,
591,0.03,0.02,0.02,0.0378,-0.0164,-1.0063,0,0,0,,,,,
593,0.03,0.02,0.01,0.0379,-0.0163,-1.0061,0,0,0,,,,,
595,0.04,0.02,0.01,0.0379,-0.0163,-1.0062,0,0,0,,,,,
597,0.04,0.02,0,0.0379,-0.0164,-1.006,0,0,0,,,,,
599,0.04,0.01,0,0.0379,-0.0163,-1.0059,0,0,0,,,,,
601,0.05,0.02,0,0.038,-0.0163,-1.0057,0,0,0,,,,,
603,0.05,0.02,0,0.038,-0.0162,-1.0056,0,0,0,,,,,
605,0.05,0.02,0,0.038,-0.0162,-1.0056,0,0,0,,,,,
607,0.06,0.03,0,0.0382,-0.0163,-1.0055,0,0,0,,,,,
609,0.07,0.03,-0.01,0.0384,-0.0162,-1.0053,0,0,0,,,,,
611,0.07,0.02,-0.01,0.0384,-0.0162,-1.005,0,0,0,,,,,
613,0.07,0.02,-0.01,0.0385,-0.0162,-1.0049,0,0,0,,,,,
615,0.07,0.02,0,0.0384,-0.0161,-1.005,0,0,0,,,,,
618,0.07,0.02,0,0.0384,-0.0159,-1.0049,0,0,0,,,,,
620,0.06,0.03,0,0.0384,-0.0159,-1.0049,0,0,0,,,,,
622,0.06,0.03,0,0.0384,-0.016,-1.0048,0,0,0,,,,,
624,0.06,0.03,0,0.0385,-0.0161,-1.005,0,0,0,,,,,
626,0.06,0.03,0,0.0386,-0.0162,-1.005,0,0,0,,,,,
628,0.05,0.03,0,0.0385,-0.0163,-1.0051,0,0,0,,,,,
630,0.06,0.03,0,0.0386,-0.0164,-1.0051,0,0,0,,,,,
632,0.05,0.03,0,0.0385,-0.0162,-1.0052,0,0,0,,,,,
634,0.05,0.03,0,0.0386,-0.0161,-1.0053,0,0,0,,,,,
636,0.05,0.02,0,0.0387,-0.016,-1.0054,0,0,0,,,,,
638,0.05,0.02,0,0.0385,-0.0159,-1.0054,0,0,0,,,,,
640,0.04,0.01,0,0.0384,-0.016,-1.0056,0,0,0,,,,,
642,0.04,0.01,0,0.0384,-0.0159,-1.0058,0,0,0,,,,,
644,0.04,0.01,0,0.0383,-0.016,-1.0058,0,0,0,,,,,
646,0.04,0.02,0,0.0386,-0.0161,-1.0058,0,0,0,,,,,
648,0.04,0.02,0,0.0388,-0.0163,-1.0058,0,0,0,,,,,
651,0.04,0.02,0.01,0.0389,-0.0162,-1.006,0,0,0,,,,,
653,0.04,0.02,0.01,0.0389,-0.0161,-1.006,0,0,0,,,,,
655,0.04,0.02,0.02,0.0388,-0.0162,-1.0059,0,0,0,,,,,
657,0.04,0.02,0.02,0.0387,-0.016,-1.0058,0,0,0,,,,,
659,0.04,0.02,0.02,0.0387,-0.0157,-1.0057,0,0,0,,,,,
661,0.04,0.03,0.03,0.0387,-0.0157,-1.0058,0,0,0,,,,,
663,0.04,0.02,0.03,0.0388,-0.0159,-1.0061,0,0,0,,,,,
665,0.05,0.02,0.03,0.0387,-0.016,-1.0061,0,0,0,,,,,
667,0.05,0.02,0.03,0.0385,-0.0159,-1.006,0,0,0,,,,,
669,0.05,0.02,0.03,0.0386,-0.0158,-1.0061,0,0,0,,,,,
671,0.05,0.02,0.03,0.0386,-0.0157,-1.006,0,0,0,,,,,
673,0.05,0.02,0.04,0.0386,-0.0158,-1.0061,0,0,0,,,,,
675,0.05,0.02,0.03,0.0386,-0.0158,-1.006,0,0,0,,,,,
677,0.04,0.02,0.03,0.0385,-0.0157,-1.006,0,0,0,,,,,
679,0.04,0.01,0.02,0.0385,-0.0157,-1.0058,0,0,0,,,,,
683,0.04,0.01,0.02,0.0385,-0.0158,-1.006,0,0,0,,,,,
686,0.03,0,0.01,0.0385,-0.016,-1.006,0,0,0,,,,,
688,0.03,0,0.01,0.0386,-0.016,-1.0061,0,0,0,,,,,
690,0.03,0,0,0.0387,-0.0161,-1.0062,0,0,0,,,,,
692,0.03,0,-0.01,0.0387,-0.0163,-1.0062,0,0,0,,,,,
694,0.03,0,-0.01,0.0385,-0.0164,-1.0063,0,0,0,,,,,
696,0.03,0,-0.01,0.0385,-0.0163,-1.0063,0,0,0,,,,,
698,0.02,0.01,-0.01,0.0386,-0.0164,-1.0063,0,0,0,,,,,
700,0.02,0.01,-0.01,0.0387,-0.0163,-1.0064,0,0,0,,,,,
702,0.02,0.01,-0.01,0.0388,-0.0164,-1.0065,0,0,0,,,,,
704,0.02,0.02,-0.01,0.0388,-0.0163,-1.0067,0,0,0,,,,,
706,0.02,0.02,-0.02,0.0387,-0.0163,-1.0068,0,0,0,,,,,
708,0.02,0.02,-0.02,0.0389,-0.0164,-1.007,0,0,0,,,,,
710,0.02,0.01,-0.02,0.0389,-0.0165,-1.0072,0,0,0,,,,,
712,0.03,0.01,-0.02,0.0389,-0.0165,-1.0072,0,0,0,,,,,
714,0.03,0.02,-0.02,0.0389,-0.0164,-1.0072,0,0,0,,,,,
716,0.04,0.02,-0.02,0.0391,-0.0161,-1.0073,0,0,0,,,,,
719,0.04,0.03,-0.02,0.0391,-0.016,-1.0073,0,0,0,,,,,
721,0.04,0.03,-0.01,0.0391,-0.016,-1.0072,0,0,0,,,,,
723,0.04,0.03,0,0.0391,-0.016,-1.0072,0,0,0,,,,,
725,0.04,0.02,0,0.0393,-0.0159,-1.0069,0,0,0,,,,,
727,0.04,0.02,0,0.0393,-0.0158,-1.0065,0,0,0,,,,,
729,0.04,0.02,0,0.0393,-0.0158,-1.0064,0,0,0,,,,,
731,0.04,0.01,0,0.0394,-0.0159,-1.0064,0,0,0,,,,,
733,0.04,0.01,-0.01,0.0393,-0.0159,-1.0062,0,0,0,,,,,
735,0.04,0.01,-0.01,0.0393,-0.016,-1.0062,0,0,0,,,,,
737,0.04,0.01,-0.01,0.0393,-0.0159,-1.0062,0,0,0,,,,,
739,0.05,0.02,-0.01,0.0391,-0.0158,-1.0062,0,0,0,,,,,
741,0.04,0.02,0,0.0389,-0.0157,-1.0061,0,0,0,,,,,
743,0.04,0.02,-0.01,0.0389,-0.0157,-1.0064,0,0,0,,,,,
745,0.04,0.02,-0.01,0.0389,-0.0159,-1.0062,0,0,0,,,,,
747,0.04,0.02,0,0.0389,-0.016,-1.0063,0,0,0,,,,,
749,0.03,0.01,0,0.0388,-0.0161,-1.0063,0,0,0,,,,,
752,0.03,0.01,0,0.0388,-0.0161,-1.0061,0,0,0,,,,,
754,0.03,0.01,-0.01,0.0387,-0.0162,-1.0062,0,0,0,,,,,
756,0.03,0.01,0,0.0387,-0.0162,-1.0064,0,0,0,,,,,
758,0.03,0,0,0.0387,-0.0163,-1.0066,0,0,0,,,,,
760,0.03,0,0,0.0385,-0.0164,-1.0067,0,0,0,,,,,
762,0.03,0.01,0,0.0385,-0.0166,-1.0066,0,0,0,,,,,
764,0.03,0.01,0,0.0385,-0.0167,-1.0066,0,0,0,,,,,
766,0.03,0.01,0.01,0.0387,-0.0168,-1.0064,0,0,0,,,,,
768,0.02,0.01,0.02,0.0388,-0.0168,-1.0063,0,0,0,,,,,
770,0.02,0,0.02,0.0389,-0.0169,-1.0063,0,0,0,,,,,
772,0.03,0,0.02,0.039,-0.017,-1.0062,0,0,0,,,,,
774,0.04,0,0.02,0.0391,-0.017,-1.006,0,0,0,,,,,
776,0.04,0,0.02,0.0391,-0.0169,-1.0061,0,0,0,,,,,
778,0.04,0,0.02,0.039,-0.017,-1.0061,0,0,0,,,,,
780,0.04,0,0.02,0.0391,-0.0171,-1.0061,0,0,0,,,,,
782,0.04,0.01,0.02,0.0392,-0.0172,-1.0063,0,0,0,,,,,
785,0.04,0.02,0.02,0.0393,-0.0171,-1.0062,0,0,0,,,,,
787,0.04,0.02,0.02,0.0392,-0.0171,-1.0061,0,0,0,,,,,
789,0.04,0.02,0.02,0.0391,-0.0172,-1.0061,0,0,0,,,,,
791,0.04,0.03,0.02,0.0391,-0.0173,-1.0061,0,0,0,,,,,
793,0.04,0.03,0.02,0.039,-0.0172,-1.006,0,0,0,,,,,
795,0.03,0.03,0.02,0.0389,-0.017,-1.0063,0,0,0,,,,,
797,0.02,0.04,0.03,0.0388,-0.017,-1.0065,0,0,0,,,,,
799,0.04,0.04,0.03,0.0388,-0.0171,-1.0062,0,0,0,,,,,
801,0.04,0.04,0.03,0.0388,-0.0171,-1.0062,0,0,0,,,,,
803,0.03,0.04,0.03,0.0388,-0.0172,-1.0063,0,0,0,,,,,
805,0.03,0.05,0.03,0.0387,-0.0172,-1.0063,0,0,0,,,,,
807,0.03,0.04,0.03,0.0386,-0.0172,-1.006,0,0,0,,,,,
809,0.03,0.04,0.02,0.0386,-0.0171,-1.0061,0,0,0,,,,,
811,0.03,0.04,0.02,0.0387,-0.017,-1.0061,0,0,0,,,,,
813,0.03,0.04,0.02,0.0386,-0.0169,-1.0059,0,0,0,,,,,
816,0.04,0.04,0.02,0.0385,-0.0168,-1.0062,0,0,0,,,,,
819,0.04,0.04,0.02,0.0386,-0.0167,-1.0063,0,0,0,,,,,
821,0.05,0.04,0.02,0.0387,-0.0165,-1.0061,0,0,0,,,,,
823,0.05,0.03,0.02,0.0386,-0.0166,-1.0062,0,0,0,,,,,
825,0.06,0.03,0.02,0.0387,-0.0166,-1.0064,0,0,0,,,,,
827,0.06,0.03,0.02,0.0386,-0.0167,-1.0061,0,0,0,,,,,
829,0.07,0.02,0.01,0.0386,-0.0167,-1.0063,0,0,0,,,,,
831,0.07,0.02,0.01,0.0386,-0.0167,-1.0066,0,0,0,,,,,
833,0.07,0.02,0,0.0387,-0.0165,-1.0066,0,0,0,,,,,
835,0.06,0.02,0,0.0387,-0.0166,-1.0066,0,0,0,,,,,
837,0.06,0.02,0.01,0.0386,-0.0165,-1.0068,0,0,0,,,,,
839,0.05,0.02,0.01,0.0386,-0.0164,-1.0069,0,0,0,,,,,
841,0.05,0.02,0.01,0.0388,-0.0166,-1.0068,0,0,0,,,,,
843,0.05,0.02,0.02,0.0387,-0.0166,-1.0068,0,0,0,,,,,
845,0.05,0.02,0.02,0.0388,-0.0165,-1.0069,0,0,0,,,,,
847,0.05,0.02,0.02,0.039,-0.0165,-1.0067,0,0,0,,,,,
849,0.05,0.02,0.03,0.0392,-0.0165,-1.0067,0,0,0,,,,,
852,0.04,0.02,0.02,0.0392,-0.0167,-1.007,0,0,0,,,,,
854,0.04,0.01,0.03,0.0393,-0.0166,-1.007,0,0,0,,,,,
856,0.04,0.02,0.03,0.0394,-0.0166,-1.0069,0,0,0,,,,,
858,0.04,0.01,0.03,0.0395,-0.0165,-1.0069,0,0,0,,,,,
860,0.04,0.01,0.03,0.0396,-0.0164,-1.0067,0,0,0,,,,,
862,0.04,0,0.03,0.0395,-0.0163,-1.0067,0,0,0,,,,,
864,0.04,0,0.03,0.0394,-0.0164,-1.0068,0,0,0,,,,,
866,0.04,0,0.03,0.0395,-0.0164,-1.0066,0,0,0,,,,,
868,0.04,0,0.02,0.0395,-0.0163,-1.0064,0,0,0,,,,,
870,0.04,-0.01,0.02,0.0394,-0.0164,-1.0065,0,0,0,,,,,
872,0.04,0,0.02,0.0393,-0.0163,-1.0062,0,0,0,,,,,
874,0.05,-0.01,0.02,0.0393,-0.0163,-1.0063,0,0,0,,,,,
876,0.05,-0.01,0.01,0.0393,-0.0163,-1.0064,0,0,0,,,,,
878,0.05,-0.01,0.01,0.0391,-0.0163,-1.0065,0,0,0,,,,,
880,0.04,-0.01,0,0.039,-0.0164,-1.0062,0,0,0,,,,,
882,0.05,-0.01,0,0.0389,-0.0162,-1.006,0,0,0,,,,,
885,0.04,0,0,0.0388,-0.0162,-1.0061,0,0,0,,,,,
887,0.04,0,0,0.0387,-0.0162,-1.0062,0,0,0,,,,,
889,0.04,0,-0.01,0.0387,-0.0161,-1.0062,0,0,0,,,,,
891,0.04,0,-0.01,0.0386,-0.0163,-1.0061,0,0,0,,,,,
893,0.04,0,0,0.0387,-0.0164,-1.006,0,0,0,,,,,
895,0.04,0.01,0,0.0387,-0.0163,-1.0055,0,0,0,,,,,
897,0.05,0.01,0,0.0387,-0.0161,-1.0056,0,0,0,,,,,
899,0.04,0.01,0,0.0387,-0.016,-1.0056,0,0,0,,,,,
901,0.04,0.01,0,0.0388,-0.0159,-1.0056,0,0,0,,,,,
903,0.04,0.01,0,0.0387,-0.0159,-1.0058,0,0,0,,,,,
905,0.04,0.02,0,0.0387,-0.0159,-1.0059,0,0,0,,,,,
907,0.04,0.02,0,0.0388,-0.016,-1.0059,0,0,0,,,,,
909,0.03,0.02,0,0.0388,-0.0161,-1.0058,0,0,0,,,,,
911,0.03,0.02,0,0.0387,-0.0161,-1.0059,0,0,0,,,,,
913,0.03,0.02,0,0.0387,-0.0162,-1.0059,0,0,0,,,,,
915,0.02,0.02,0,0.0388,-0.0161,-1.0057,0,0,0,,,,,
918,0.02,0.02,0,0.0388,-0.016,-1.0057,0,0,0,,,,,
920,0.02,0.03,0,0.0387,-0.0162,-1.0058,0,0,0,,,,,
922,0.02,0.03,0,0.0388,-0.0162,-1.0059,0,0,0,,,,,
924,0.02,0.03,0,0.0387,-0.016,-1.0059,0,0,0,,,,,
926,0.02,0.03,0,0.0387,-0.0161,-1.0063,0,0,0,,,,,
928,0.02,0.03,0,0.0387,-0.0161,-1.0065,0,0,0,,,,,
930,0.02,0.03,0,0.0387,-0.0163,-1.0065,0,0,0,,,,,
932,0.03,0.03,0,0.0387,-0.0165,-1.0065,0,0,0,,,,,
934,0.02,0.03,0,0.0386,-0.0166,-1.0063,0,0,0,,,,,
936,0.02,0.03,0,0.0386,-0.0164,-1.0063,0,0,0,,,,,
938,0.02,0.03,0,0.0384,-0.0163,-1.0064,0,0,0,,,,,
940,0.02,0.02,0.01,0.0384,-0.0163,-1.0064,0,0,0,,,,,
942,0.03,0.02,0.01,0.0384,-0.0165,-1.0062,0,0,0,,,,,
944,0.03,0.02,0.01,0.0384,-0.0166,-1.0062,0,0,0,,,,,
946,0.03,0.02,0,0.0385,-0.0167,-1.0061,0,0,0,,,,,
950,0.03,0.02,0,0.0385,-0.0167,-1.0059,0,0,0,,,,,
953,0.04,0.02,0,0.0384,-0.0166,-1.006,0,0,0,,,,,
955,0.03,0.02,0,0.0383,-0.0166,-1.006,0,0,0,,,,,
957,0.03,0.01,0,0.0384,-0.0167,-1.006,0,0,0,,,,,
959,0.04,0.01,0,0.0384,-0.0165,-1.006,0,0,0,,,,,
961,0.04,0,0,0.0385,-0.0167,-1.0059,0,0,0,,,,,
963,0.04,0,0,0.0387,-0.0166,-1.006,0,0,0,,,,,
965,0.04,0.01,0,0.0388,-0.0165,-1.0061,0,0,0,,,,,
967,0.05,0.01,0,0.0387,-0.0165,-1.006,0,0,0,,,,,
969,0.06,0.01,0,0.0388,-0.0166,-1.0058,0,0,0,,,,,
971,0.06,0.02,-0.01,0.0389,-0.0167,-1.0055,0,0,0,,,,,
973,0.07,0.01,-0.01,0.0388,-0.0165,-1.0053,0,0,0,,,,,
975,0.07,0.02,-0.01,0.0388,-0.0163,-1.0055,0,0,0,,,,,
977,0.07,0.01,-0.01,0.0388,-0.0162,-1.0056,0,0,0,,,,,
979,0.07,0,-0.01,0.0388,-0.016,-1.006,0,0,0,,,,,
981,0.07,0,-0.01,0.039,-0.016,-1.006,0,0,0,,,,,
983,0.07,0,-0.01,0.039,-0.0158,-1.006,0,0,0,,,,,
986,0.07,0,-0.01,0.039,-0.0157,-1.0059,0,0,0,,,,,
988,0.07,0,-0.01,0.039,-0.0156,-1.0059,0,0,0,,,,,
990,0.07,0,-0.01,0.039,-0.0157,-1.0057,0,0,0,,,,,
992,0.06,0,-0.01,0.0388,-0.0156,-1.0057,0,0,0,,,,,
994,0.05,0,-0.01,0.0387,-0.0157,-1.0059,0,0,0,,,,,
996,0.05,0,-0.01,0.0386,-0.0158,-1.0057,0,0,0,,,,,
998,0.04,0,-0.01,0.0387,-0.0158,-1.0061,0,0,0,,,,,
1000,0.04,0,0,0.0388,-0.0159,-1.0063,0,0,0,,,,,
1002,0.04,0,0,0.0387,-0.0158,-1.0066,0,0,0,,,,,
1004,0.03,0,0.01,0.0387,-0.016,-1.0069,0,0,0,,,,,
1006,0.04,-0.01,0.01,0.0388,-0.016,-1.0069,0,0,0,,,,,
1008,0.03,0,0.01,0.0387,-0.016,-1.0069,0,0,0,,,,,
1010,0.03,0,0.01,0.0387,-0.0162,-1.0066,0,0,0,,,,,
1012,0.02,0,0.01,0.0387,-0.0163,-1.0069,0,0,0,,,,,
1014,0.03,0,0.02,0.0387,-0.0165,-1.0068,0,0,0,,,,,
1016,0.03,0,0.02,0.0387,-0.0167,-1.0066,0,0,0,,,,,
1019,0.03,0.01,0.02,0.0388,-0.0168,-1.0064,0,0,0,,,,,
1021,0.02,0.01,0.02,0.0388,-0.0168,-1.0064,0,0,0,,,,,
1023,0.03,0,0.02,0.0389,-0.0169,-1.0065,0,0,0,,,,,
1025,0.04,0,0.03,0.039,-0.0167,-1.0063,0,0,0,,,,,
1027,0.04,0,0.03,0.039,-0.0167,-1.0067,0,0,0,,,,,
1029,0.04,0,0.03,0.0388,-0.0167,-1.0064,0,0,0,,,,,
1031,0.05,0,0.03,0.0386,-0.0168,-1.0063,0,0,0,,,,,
1033,0.05,-0.01,0.03,0.0387,-0.0169,-1.0063,0,0,0,,,,,
1035,0.05,0,0.02,0.0387,-0.0168,-1.0063,0,0,0,,,,,
1037,0.05,0,0.03,0.0387,-0.0167,-1.0065,0,0,0,,,,,
1039,0.05,-0.01,0.02,0.0387,-0.0167,-1.0065,0,0,0,,,,,
1041,0.06,0,0.02,0.0387,-0.0166,-1.0064,0,0,0,,,,,
1043,0.06,0,0.02,0.0386,-0.0164,-1.0063,0,0,0,,,,,
1045,0.06,0,0.02,0.0387,-0.0166,-1.0066,0,0,0,,,,,
1047,0.06,0,0.02,0.0388,-0.0166,-1.0066,0,0,0,,,,,
1049,0.05,0,0.01,0.0388,-0.0166,-1.0069,0,0,0,,,,,
1052,0.05,0,0.01,0.0389,-0.0166,-1.007,0,0,0,,,,,
1054,0.05,0,0,0.0389,-0.0167,-1.0069,0,0,0,,,,,
1056,0.04,0.01,0,0.0387,-0.0166,-1.0067,0,0,0,,,,,
1058,0.04,0.01,0,0.0388,-0.0165,-1.0065,0,0,0,,,,,
1060,0.04,0.01,0,0.0389,-0.0164,-1.0066,0,0,0,,,,,
1062,0.04,0.01,0,0.0389,-0.0164,-1.0066,0,0,0,,,,,
1064,0.03,0.02,0,0.0388,-0.0164,-1.0068,0,0,0,,,,,
1066,0.02,0.02,0,0.0387,-0.0164,-1.0069,0,0,0,,,,,
1068,0.02,0.02,0,0.0386,-0.0164,-1.0068,0,0,0,,,,,
1070,0.02,0.02,-0.01,0.0388,-0.0165,-1.0068,0,0,0,,,,,
1072,0.02,0.02,-0.01,0.0388,-0.0167,-1.0068,0,0,0,,,,,
1074,0.02,0.02,-0.01,0.0389,-0.0167,-1.0068,0,0,0,,,,,
1076,0.02,0.03,-0.02,0.0388,-0.0164,-1.0067,0,0,0,,,,,
1078,0.01,0.03,-0.02,0.0388,-0.0163,-1.0075,0,0,0,,,,,
1080,0.02,0.03,-0.02,0.0387,-0.0163,-1.0074,0,0,0,,,,,
1083,0.02,0.03,-0.02,0.0386,-0.0163,-1.0076,0,0,0,,,,,
1086,0.02,0.03,-0.02,0.0385,-0.0163,-1.0077,0,0,0,,,,,
1088,0.02,0.03,-0.02,0.0385,-0.0165,-1.0077,0,0,0,,,,,
1090,0.03,0.02,-0.01,0.0385,-0.0166,-1.0075,0,0,0,,,,,
1092,0.02,0.03,-0.01,0.0387,-0.0167,-1.0075,0,0,0,,,,,
1094,0.02,0.03,-0.02,0.0388,-0.0165,-1.0072,0,0,0,,,,,
1096,0.03,0.03,-0.02,0.0388,-0.0164,-1.0071,0,0,0,,,,,
1098,0.04,0.03,-0.02,0.0388,-0.0163,-1.0069,0,0,0,,,,,
1100,0.04,0.03,-0.02,0.0389,-0.0163,-1.0066,0,0,0,,,,,
1102,0.04,0.03,-0.02,0.0389,-0.0163,-1.0067,0,0,0,,,,,
1104,0.05,0.04,-0.01,0.0389,-0.0163,-1.0067,0,0,0,,,,,
1106,0.05,0.04,-0.01,0.0388,-0.0164,-1.0067,0,0,0,,,,,
1108,0.05,0.04,0,0.0388,-0.0165,-1.0066,0,0,0,,,,,
1110,0.06,0.04,-0.01,0.0388,-0.0167,-1.0061,0,0,0,,,,,
1112,0.05,0.04,0,0.0387,-0.0167,-1.0061,0,0,0,,,,,
1114,0.05,0.05,0,0.0387,-0.0166,-1.0062,0,0,0,,,,,
1116,0.06,0.05,0,0.0387,-0.0165,-1.0059,0,0,0,,,,,
1119,0.06,0.05,0,0.0388,-0.0164,-1.0059,0,0,0,,,,,
1121,0.05,0.05,0,0.0389,-0.0165,-1.0062,0,0,0,,,,,
1123,0.06,0.06,0,0.0388,-0.0165,-1.0063,0,0,0,,,,,
1125,0.06,0.06,0,0.0386,-0.0164,-1.0062,0,0,0,,,,,
1127,0.05,0.06,0,0.0386,-0.0165,-1.0064,0,0,0,,,,,
1129,0.05,0.05,0,0.0387,-0.0165,-1.0065,0,0,0,,,,,
1131,0.05,0.05,0,0.0386,-0.0167,-1.0066,0,0,0,,,,,
1133,0.04,0.06,0,0.0387,-0.0166,-1.0065,0,0,0,,,,,
1135,0.04,0.05,0,0.0387,-0.0165,-1.0067,0,0,0,,,,,
1137,0.05,0.04,0,0.0387,-0.0164,-1.0066,0,0,0,,,,,
1139,0.05,0.04,0,0.0388,-0.0163,-1.0068,0,0,0,,,,,
1141,0.04,0.04,0,0.0388,-0.0161,-1.0068,0,0,0,,,,,
1143,0.05,0.04,0,0.039,-0.016,-1.0066,0,0,0,,,,,
1145,0.05,0.04,0.01,0.039,-0.0161,-1.0064,0,0,0,,,,,
1147,0.05,0.04,0.01,0.039,-0.0162,-1.0066,0,0,0,,,,,
1149,0.05,0.04,0.01,0.0391,-0.0162,-1.0068,0,0,0,,,,,
1152,0.05,0.04,0.01,0.0389,-0.0161,-1.0067,0,0,0,,,,,
1154,0.05,0.03,0,0.039,-0.0158,-1.0069,0,0,0,,,,,
1156,0.05,0.03,0,0.0391,-0.016,-1.007,0,0,0,,,,,
1158,0.05,0.04,0,0.0392,-0.0161,-1.0068,0,0,0,,,,,
1160,0.05,0.04,0,0.0392,-0.0162,-1.0067,0,0,0,,,,,
1162,0.05,0.04,0,0.0392,-0.0162,-1.0066,0,0,0,,,,,
1164,0.06,0.03,0,0.0391,-0.0163,-1.0066,0,0,0,,,,,
1166,0.06,0.04,0,0.0392,-0.0163,-1.0062,0,0,0,,,,,
1168,0.06,0.04,0,0.0392,-0.0163,-1.0061,0,0,0,,,,,
1170,0.06,0.04,0.01,0.0391,-0.0164,-1.006,0,0,0,,,,,
1172,0.07,0.04,0.01,0.039,-0.0164,-1.0062,0,0,0,,,,,
1174,0.07,0.04,0.01,0.039,-0.0164,-1.0065,0,0,0,,,,,
1176,0.07,0.04,0.01,0.0389,-0.0163,-1.0067,0,0,0,,,,,
1178,0.06,0.03,0,0.039,-0.0162,-1.0068,0,0,0,,,,,
1180,0.06,0.03,0.01,0.039,-0.0163,-1.0067,0,0,0,,,,,
1182,0.06,0.03,0.01,0.039,-0.0164,-1.0068,0,0,0,,,,,
1185,0.05,0.03,0.01,0.039,-0.0166,-1.0066,0,0,0,,,,,
1187,0.05,0.03,0.01,0.039,-0.0165,-1.0067,0,0,0,,,,,
1189,0.05,0.03,0,0.039,-0.0164,-1.007,0,0,0,,,,,
1191,0.05,0.03,0.01,0.0391,-0.0162,-1.0073,0,0,0,,,,,
1193,0.05,0.03,0.01,0.0391,-0.016,-1.0071,0,0,0,,,,,
1195,0.04,0.03,0.01,0.0392,-0.0159,-1.0072,0,0,0,,,,,
1197,0.04,0.02,0,0.0391,-0.0159,-1.0075,0,0,0,,,,,
1199,0.04,0.02,0,0.0389,-0.016,-1.0076,0,0,0,,,,,
1201,0.04,0.03,0,0.0389,-0.0161,-1.0075,0,0,0,,,,,
1203,0.04,0.03,-0.01,0.0388,-0.0161,-1.0072,0,0,0,,,,,
1205,0.04,0.03,-0.01,0.0387,-0.0162,-1.0066,0,0,0,,,,,
1207,0.03,0.03,-0.01,0.0388,-0.0162,-1.0064,0,0,0,,,,,
1209,0.04,0.04,-0.01,0.0387,-0.0163,-1.0061,0,0,0,,,,,
1211,0.04,0.04,-0.01,0.0387,-0.0161,-1.006,0,0,0,,,,,
1213,0.04,0.04,-0.01,0.0386,-0.0162,-1.0059,0,0,0,,,,,
1217,0.04,0.04,0,0.0385,-0.0163,-1.0058,0,0,0,,,,,
1220,0.04,0.04,0,0.0384,-0.0164,-1.0057,0,0,0,,,,,
1222,0.04,0.05,0,0.0384,-0.0164,-1.0057,0,0,0,,,,,
1224,0.04,0.04,0,0.0384,-0.0163,-1.0055,0,0,0,,,,,
1226,0.04,0.04,0,0.0385,-0.0164,-1.0057,0,0,0,,,,,
1228,0.04,0.04,0,0.0384,-0.0165,-1.0055,0,0,0,,,,,
1230,0.04,0.04,0,0.0384,-0.0164,-1.0056,0,0,0,,,,,
1232,0.04,0.04,0.01,0.0385,-0.0164,-1.0058,0,0,0,,,,,
1234,0.04,0.03,0,0.0386,-0.0163,-1.006,0,0,0,,,,,
1236,0.03,0.03,0,0.0387,-0.0162,-1.0061,0,0,0,,,,,
1238,0.03,0.03,0,0.0386,-0.0161,-1.0064,0,0,0,,,,,
1240,0.03,0.02,0,0.0386,-0.0162,-1.0063,0,0,0,,,,,
1242,0.02,0.02,-0.01,0.0387,-0.0162,-1.0063,0,0,0,,,,,
1244,0.02,0.02,-0.01,0.0389,-0.0164,-1.0063,0,0,0,,,,,
1246,0.02,0.03,-0.01,0.0389,-0.0164,-1.0063,0,0,0,,,,,
1248,0.03,0.02,-0.02,0.0389,-0.0161,-1.0063,0,0,0,,,,,
1250,0.03,0.02,-0.02,0.039,-0.0161,-1.0063,0,0,0,,,,,
1253,0.03,0.02,-0.02,0.0391,-0.0161,-1.0063,0,0,0,,,,,
1255,0.04,0.02,-0.02,0.039,-0.0163,-1.0061,0,0,0,,,,,
1257,0.04,0.02,-0.02,0.0389,-0.0164,-1.006,0,0,0,,,,,
1259,0.04,0.03,-0.02,0.0388,-0.0164,-1.006,0,0,0,,,,,
1261,0.04,0.03,-0.02,0.0389,-0.0164,-1.0059,0,0,0,,,,,
1263,0.04,0.03,-0.02,0.0388,-0.0164,-1.0056,0,0,0,,,,,
1265,0.04,0.03,-0.02,0.0386,-0.0165,-1.0056,0,0,0,,,,,
1267,0.04,0.03,-0.02,0.0385,-0.0167,-1.0058,0,0,0,,,,,
1269,0.04,0.04,-0.02,0.0385,-0.0168,-1.0059,0,0,0,,,,,
1271,0.04,0.04,-0.02,0.0385,-0.0167,-1.0059,0,0,0,,,,,
1273,0.04,0.04,-0.02,0.0384,-0.0167,-1.0062,0,0,0,,,,,
1275,0.04,0.04,-0.02,0.0383,-0.0165,-1.0061,0,0,0,,,,,
1277,0.04,0.04,-0.02,0.0383,-0.0163,-1.006,0,0,0,,,,,
1279,0.04,0.04,-0.02,0.0384,-0.0163,-1.006,0,0,0,,,,,
1281,0.04,0.04,-0.02,0.0384,-0.0164,-1.006,0,0,0,,,,,
1283,0.04,0.04,-0.02,0.0383,-0.0162,-1.0059,0,0,0,,,,,
1286,0.03,0.04,-0.02,0.0383,-0.0161,-1.0059,0,0,0,,,,,
1288,0.03,0.04,-0.02,0.0383,-0.0159,-1.006,0,0,0,,,,,
1290,0.03,0.04,-0.02,0.0383,-0.016,-1.0062,0,0,0,,,,,
1292,0.02,0.03,-0.02,0.0384,-0.0159,-1.0063,0,0,0,,,,,
1294,0.03,0.04,-0.02,0.0385,-0.0158,-1.0064,0,0,0,,,,,
1296,0.03,0.04,-0.02,0.0386,-0.0157,-1.0062,0,0,0,,,,,
1298,0.04,0.03,-0.01,0.0387,-0.0157,-1.0061,0,0,0,,,,,
1300,0.04,0.03,-0.01,0.0387,-0.0156,-1.0061,0,0,0,,,,,
1302,0.04,0.02,0,0.0387,-0.0155,-1.006,0,0,0,,,,,
1304,0.04,0.02,0,0.0389,-0.0155,-1.006,0,0,0,,,,,
1306,0.04,0.01,0,0.0388,-0.0155,-1.0061,0,0,0,,,,,
1308,0.04,0.01,0.01,0.0387,-0.0157,-1.0061,0,0,0,,,,,
1310,0.03,0,0.01,0.0385,-0.0159,-1.0061,0,0,0,,,,,
1312,0.03,0.01,0.01,0.0385,-0.0159,-1.0065,0,0,0,,,,,
1314,0.03,0.01,0.01,0.0385,-0.016,-1.0066,0,0,0,,,,,
1316,0.03,0,0,0.0385,-0.0162,-1.0067,0,0,0,,,,,
1319,0.04,0,0,0.0385,-0.0163,-1.0068,0,0,0,,,,,
1321,0.04,0.01,0,0.0386,-0.0163,-1.0068,0,0,0,,,,,
1323,0.04,0.01,0,0.0387,-0.0165,-1.0066,0,0,0,,,,,
1325,0.04,0.01,0,0.0387,-0.0164,-1.0065,0,0,0,,,,,
1327,0.04,0.01,0,0.0388,-0.0165,-1.0067,0,0,0,,,,,
1329,0.04,0.02,0,0.0388,-0.0164,-1.0066,0,0,0,,,,,
1331,0.04,0.01,0,0.0388,-0.0165,-1.0065,0,0,0,,,,,
1333,0.04,0.02,0,0.0389,-0.0166,-1.0067,0,0,0,,,,,
1335,0.04,0.02,0,0.0387,-0.0167,-1.0064,0,0,0,,,,,
1337,0.04,0.02,0,0.0388,-0.0167,-1.0065,0,0,0,,,,,
1339,0.05,0.03,-0.01,0.039,-0.0167,-1.0064,0,0,0,,,,,
1341,0.05,0.03,-0.01,0.0392,-0.0166,-1.0064,0,0,0,,,,,
1343,0.05,0.02,-0.01,0.0392,-0.0166,-1.006,0,0,0,,,,,
1345,0.05,0.02,-0.01,0.0393,-0.0165,-1.006,0,0,0,,,,,
1347,0.05,0.02,0,0.0393,-0.0165,-1.006,0,0,0,,,,,
1350,0.05,0.02,0,0.0392,-0.0165,-1.0061,0,0,0,,,,,
1353,0.05,0.02,0,0.0392,-0.0166,-1.006,0,0,0,,,,,
1355,0.05,0.02,0,0.0391,-0.0163,-1.0062,0,0,0,,,,,
1357,0.04,0.02,0,0.0391,-0.0164,-1.0063,0,0,0,,,,,
1359,0.04,0.01,0,0.0391,-0.0163,-1.0063,0,0,0,,,,,
1361,0.04,0,0.01,0.0391,-0.0163,-1.0064,0,0,0,,,,,
1363,0.04,0.01,0.01,0.039,-0.0162,-1.0065,0,0,0,,,,,
1365,0.04,0,0.01,0.039,-0.0162,-1.0065,0,0,0,,,,,
1367,0.05,0,0,0.0391,-0.0162,-1.0068,0,0,0,,,,,
1369,0.05,0,0,0.0389,-0.0163,-1.0069,0,0,0,,,,,
1371,0.05,0,0.01,0.0388,-0.0162,-1.0072,0,0,0,,,,,
1373,0.05,0,0,0.0389,-0.0163,-1.007,0,0,0,,,,,
1375,0.05,0,0,0.0389,-0.0162,-1.0072,0,0,0,,,,,
1377,0.04,0,0,0.0388,-0.0162,-1.0072,0,0,0,,,,,
1379,0.04,0,0,0.0388,-0.0162,-1.0073,0,0,0,,,,,
1381,0.04,0,0,0.039,-0.0162,-1.0071,0,0,0,,,,,
1383,0.04,0,0,0.0391,-0.0162,-1.0071,0,0,0,,,,,
1386,0.03,0,0,0.0391,-0.0163,-1.0072,0,0,0,,,,,
1388,0.03,0,0,0.0392,-0.0164,-1.007,0,0,0,,,,,
1390,0.04,0.01,0,0.0391,-0.0166,-1.0066,0,0,0,,,,,
1392,0.04,0.01,0,0.0391,-0.0167,-1.0067,0,0,0,,,,,
1394,0.04,0.01,0,0.0391,-0.0167,-1.0067,0,0,0,,,,,
1396,0.04,0.01,0,0.0391,-0.0167,-1.0066,0,0,0,,,,,
1398,0.03,0.01,0,0.0391,-0.0167,-1.0065,0,0,0,,,,,
1400,0.02,0.01,0,0.039,-0.0167,-1.0064,0,0,0,,,,,
1402,0.02,0.02,0,0.0389,-0.0167,-1.0062,0,0,0,,,,,
1404,0.03,0.02,0.01,0.0387,-0.0166,-1.0063,0,0,0,,,,,
1406,0.03,0.03,0.02,0.0388,-0.0166,-1.0062,0,0,0,,,,,
1408,0.04,0.03,0.01,0.0387,-0.0166,-1.0061,0,0,0,,,,,
1410,0.04,0.03,0.01,0.0386,-0.0167,-1.006,0,0,0,,,,,
1412,0.04,0.04,0.01,0.0385,-0.0166,-1.006,0,0,0,,,,,
1414,0.04,0.04,0.01,0.0386,-0.0164,-1.0059,0,0,0,,,,,
1416,0.04,0.03,0.02,0.0385,-0.0165,-1.0058,0,0,0,,,,,
1419,0.04,0.03,0.02,0.0384,-0.0165,-1.0059,0,0,0,,,,,
1421,0.04,0.02,0.01,0.0384,-0.0163,-1.0059,0,0,0,,,,,
1423,0.04,0.02,0.01,0.0382,-0.0164,-1.0059,0,0,0,,,,,
1425,0.04,0.02,0.01,0.0383,-0.0164,-1.0059,0,0,0,,,,,
1427,0.04,0.02,0.01,0.0384,-0.0163,-1.006,0,0,0,,,,,
1429,0.04,0.02,0.01,0.0384,-0.0162,-1.006,0,0,0,,,,,
1431,0.04,0.02,0.01,0.0386,-0.0163,-1.0058,0,0,0,,,,,
1433,0.04,0.02,0.01,0.0387,-0.0164,-1.0056,0,0,0,,,,,
1435,0.04,0.02,0.01,0.0388,-0.0166,-1.0055,0,0,0,,,,,
1437,0.04,0.02,0.01,0.0387,-0.0166,-1.0055,0,0,0,,,,,
1439,0.04,0.02,0.02,0.0388,-0.0168,-1.0054,0,0,0,,,,,
1441,0.04,0.01,0.01,0.0391,-0.0171,-1.0055,0,0,0,,,,,
1443,0.04,0.01,0.01,0.0391,-0.0173,-1.0056,0,0,0,,,,,
1445,0.03,0.01,0.02,0.0392,-0.0175,-1.0055,0,0,0,,,,,
1447,0.04,0.01,0.01,0.0393,-0.0175,-1.0054,0,0,0,,,,,
1449,0.04,0.01,0.01,0.0394,-0.0175,-1.0054,0,0,0,,,,,
1452,0.04,0.01,0.02,0.0393,-0.0176,-1.0056,0,0,0,,,,,
1454,0.04,0.01,0.02,0.0395,-0.0176,-1.0056,0,0,0,,,,,
1456,0.05,0.01,0.02,0.0395,-0.0176,-1.0054,0,0,0,,,,,
1458,0.05,0.01,0.02,0.0394,-0.0177,-1.0054,0,0,0,,,,,
1460,0.06,0.01,0.02,0.0393,-0.0177,-1.0055,0,0,0,,,,,
1462,0.06,0.01,0.02,0.039,-0.0176,-1.0056,0,0,0,,,,,
1464,0.05,0.01,0.02,0.0388,-0.0175,-1.0059,0,0,0,,,,,
1466,0.04,0.01,0.02,0.0389,-0.0175,-1.0061,0,0,0,,,,,
1468,0.04,0.01,0.02,0.0388,-0.0174,-1.0062,0,0,0,,,,,
1470,0.04,0.01,0.02,0.0387,-0.0174,-1.0061,0,0,0,,,,,
1472,0.04,0.01,0.02,0.0386,-0.0171,-1.0062,0,0,0,,,,,
1474,0.04,0.01,0.02,0.0384,-0.017,-1.0064,0,0,0,,,,,
1476,0.04,0.01,0.01,0.0383,-0.017,-1.0065,0,0,0,,,,,
1478,0.04,0.01,0.01,0.0382,-0.0171,-1.0066,0,0,0,,,,,
1480,0.04,0.01,0.01,0.0381,-0.0171,-1.0065,0,0,0,,,,,
1484,0.03,0.01,0.01,0.038,-0.0172,-1.0066,0,0,0,,,,,
1487,0.03,0.02,0.01,0.038,-0.0172,-1.0067,0,0,0,,,,,
1489,0.02,0.02,0,0.038,-0.0172,-1.0069,0,0,0,,,,,
1491,0.02,0.02,0,0.038,-0.0173,-1.0068,0,0,0,,,,,
1493,0.02,0.01,0,0.0381,-0.0172,-1.0066,0,0,0,,,,,
1495,0.03,0.01,-0.01,0.0384,-0.0172,-1.0064,0,0,0,,,,,
1497,0.03,0.01,0,0.0385,-0.0171,-1.0061,0,0,0,,,,,
1499,0.04,0.01,0,0.0384,-0.0169,-1.006,0,0,0,,,,,
1501,0.04,0,0,0.0385,-0.0171,-1.0061,0,0,0,,,,,
1503,0.05,0,0,0.0385,-0.0169,-1.0061,0,0,0,,,,,
1505,0.05,0,0,0.0384,-0.0167,-1.0059,0,0,0,,,,,
1507,0.06,0,0,0.0385,-0.0166,-1.0057,0,0,0,,,,,
1509,0.06,0,0,0.0384,-0.0164,-1.0059,0,0,0,,,,,
1511,0.06,0.01,0,0.0386,-0.0161,-1.0059,0,0,0,,,,,
1513,0.06,0.01,0,0.0386,-0.0159,-1.0059,0,0,0,,,,,
1515,0.06,0.01,0,0.0386,-0.0158,-1.0057,0,0,0,,,,,
1517,0.06,0.01,0,0.0385,-0.0159,-1.0055,0,0,0,,,,,
1520,0.07,0.01,0,0.0386,-0.016,-1.0055,0,0,0,,,,,
1522,0.06,0.02,0,0.0386,-0.0161,-1.0056,0,0,0,,,,,
1524,0.05,0.02,0,0.0386,-0.0162,-1.0056,0,0,0,,,,,
1526,0.05,0.02,0.01,0.0385,-0.0163,-1.0058,0,0,0,,,,,
1528,0.05,0.02,0,0.0386,-0.0165,-1.0061,0,0,0,,,,,
1530,0.05,0.01,0.01,0.0387,-0.0166,-1.0061,0,0,0,,,,,
1532,0.05,0.01,0.01,0.0388,-0.0164,-1.0062,0,0,0,,,,,
1534,0.04,0.01,0.01,0.0389,-0.0165,-1.0062,0,0,0,,,,,
1536,0.04,0.01,0.01,0.0392,-0.0167,-1.0062,0,0,0,,,,,
1538,0.04,0.01,0.01,0.0392,-0.0169,-1.0061,0,0,0,,,,,
1540,0.03,0,0.01,0.0393,-0.017,-1.0062,0,0,0,,,,,
1542,0.02,0,0.01,0.0392,-0.0172,-1.0061,0,0,0,,,,,
1544,0.02,-0.01,0.01,0.0392,-0.0174,-1.0063,0,0,0,,,,,
1546,0.02,-0.01,0.01,0.0392,-0.0174,-1.0065,0,0,0,,,,,
1548,0.02,-0.01,0.01,0.0393,-0.0173,-1.0065,0,0,0,,,,,
1550,0.02,-0.01,0.01,0.0392,-0.0173,-1.0065,0,0,0,,,,,
1553,0.03,-0.02,0.01,0.0391,-0.0173,-1.0066,0,0,0,,,,,
1555,0.03,-0.02,0.01,0.0391,-0.0174,-1.0067,0,0,0,,,,,
1557,0.04,-0.02,0,0.0391,-0.0175,-1.0068,0,0,0,,,,,
1559,0.03,-0.01,0,0.039,-0.0174,-1.0067,0,0,0,,,,,
1561,0.03,-0.01,0,0.039,-0.0175,-1.0068,0,0,0,,,,,
1563,0.03,0,0,0.0388,-0.0175,-1.0069,0,0,0,,,,,
1565,0.04,0,0,0.0387,-0.0175,-1.007,0,0,0,,,,,
1567,0.04,0,-0.01,0.0386,-0.0174,-1.0069,0,0,0,,,,,
1569,0.04,0,-0.01,0.0384,-0.0173,-1.0071,0,0,0,,,,,
1571,0.04,0,-0.01,0.0384,-0.0172,-1.0072,0,0,0,,,,,
1573,0.05,0,-0.01,0.0384,-0.0171,-1.0071,0,0,0,,,,,
1575,0.06,0.01,0,0.0384,-0.0171,-1.007,0,0,0,,,,,
1577,0.06,0.01,0,0.0385,-0.0171,-1.0072,0,0,0,,,,,
1579,0.06,0,0,0.0385,-0.0171,-1.0071,0,0,0,,,,,
1581,0.06,0,0,0.0384,-0.017,-1.0071,0,0,0,,,,,
1583,0.06,0.01,0,0.0385,-0.0168,-1.007,0,0,0,,,,,
1586,0.06,0.01,0,0.0386,-0.0165,-1.0068,0,0,0,,,,,
1588,0.06,0.01,0.01,0.0384,-0.0163,-1.0066,0,0,0,,,,,
1590,0.05,0,0.01,0.0384,-0.0162,-1.0065,0,0,0,,,,,
1592,0.05,0,0.01,0.0385,-0.0161,-1.0066,0,0,0,,,,,
1594,0.04,0,0.01,0.0386,-0.0162,-1.0066,0,0,0,,,,,
1596,0.05,0,0.01,0.0386,-0.0162,-1.0066,0,0,0,,,,,
1598,0.05,0.01,0.02,0.0385,-0.0162,-1.0065,0,0,0,,,,,
1600,0.05,0.01,0.02,0.0384,-0.0162,-1.0064,0,0,0,,,,,
1602,0.06,0.01,0.01,0.0383,-0.0162,-1.0061,0,0,0,,,,,
1604,0.05,0.01,0.01,0.0382,-0.0162,-1.0059,0,0,0,,,,,
1606,0.05,0.01,0,0.0382,-0.0162,-1.0057,0,0,0,,,,,
1608,0.05,0.02,0,0.0383,-0.0162,-1.0054,0,0,0,,,,,
1610,0.05,0.02,0,0.0383,-0.0162,-1.0056,0,0,0,,,,,
1612,0.05,0.02,0,0.0384,-0.0162,-1.0058,0,0,0,,,,,
1614,0.05,0.03,0,0.0383,-0.0163,-1.0058,0,0,0,,,,,
1617,0.05,0.03,0,0.0382,-0.0164,-1.0062,0,0,0,,,,,
1620,0.05,0.03,0,0.0382,-0.0167,-1.0064,0,0,0,,,,,
1622,0.06,0.03,0,0.0382,-0.0167,-1.0065,0,0,0,,,,,
1624,0.05,0.04,0,0.0381,-0.0168,-1.0065,0,0,0,,,,,
1626,0.06,0.04,0,0.0381,-0.0168,-1.0066,0,0,0,,,,,
1628,0.05,0.04,0,0.038,-0.0167,-1.0065,0,0,0,,,,,
1630,0.05,0.04,0,0.0381,-0.0168,-1.0067,0,0,0,,,,,
1632,0.05,0.04,0.01,0.0383,-0.0168,-1.0068,0,0,0,,,,,
1634,0.05,0.03,0.02,0.0384,-0.0168,-1.0069,0,0,0,,,,,
1636,0.05,0.03,0.02,0.0386,-0.0168,-1.0073,0,0,0,,,,,
1638,0.05,0.03,0.02,0.0385,-0.0168,-1.0075,0,0,0,,,,,
1640,0.05,0.02,0.02,0.0384,-0.0167,-1.0076,0,0,0,,,,,
1642,0.05,0.02,0.03,0.0384,-0.0166,-1.0077,0,0,0,,,,,
1644,0.06,0.01,0.03,0.0384,-0.0167,-1.0079,0,0,0,,,,,
1646,0.06,0.01,0.03,0.0384,-0.0166,-1.0079,0,0,0,,,,,
1648,0.05,0.02,0.03,0.0385,-0.0165,-1.0076,0,0,0,,,,,
1650,0.06,0.01,0.02,0.0387,-0.0163,-1.0076,0,0,0,,,,,
1653,0.06,0.02,0.03,0.0387,-0.0162,-1.0075,0,0,0,,,,,
1655,0.06,0.01,0.02,0.0387,-0.0162,-1.0073,0,0,0,,,,,
1657,0.06,0.01,0.02,0.0386,-0.0161,-1.0072,0,0,0,,,,,
1659,0.06,0.01,0.02,0.0387,-0.0161,-1.0073,0,0,0,,,,,
1661,0.06,0.01,0.01,0.0387,-0.016,-1.0072,0,0,0,,,,,
1663,0.06,0.01,0.01,0.0387,-0.016,-1.007,0,0,0,,,,,
1665,0.06,0.02,0.01,0.0387,-0.0158,-1.0069,0,0,0,,,,,
1667,0.06,0.02,0,0.0386,-0.0159,-1.0066,0,0,0,,,,,
1669,0.05,0.02,0,0.0387,-0.0159,-1.0061,0,0,0,,,,,
1671,0.05,0.03,0,0.0387,-0.016,-1.006,0,0,0,,,,,
1673,0.04,0.04,0,0.0387,-0.0159,-1.0064,0,0,0,,,,,
1675,0.04,0.04,0,0.0386,-0.0159,-1.006,0,0,0,,,,,
1677,0.03,0.04,0,0.0388,-0.0159,-1.0061,0,0,0,,,,,
1679,0.02,0.04,-0.01,0.0388,-0.016,-1.0061,0,0,0,,,,,
1681,0.02,0.04,-0.01,0.0386,-0.0161,-1.0059,0,0,0,,,,,
1683,0.02,0.04,-0.01,0.0386,-0.0162,-1.006,0,0,0,,,,,
1686,0.02,0.05,-0.01,0.0386,-0.0162,-1.006,0,0,0,,,,,
1688,0.02,0.06,-0.01,0.0388,-0.0163,-1.0059,0,0,0,,,,,
1690,0.01,0.06,-0.01,0.0388,-0.0163,-1.0059,0,0,0,,,,,
1692,0.01,0.06,-0.01,0.0389,-0.0164,-1.0058,0,0,0,,,,,
1694,0.01,0.06,-0.01,0.0388,-0.0164,-1.0059,0,0,0,,,,,
1696,0,0.06,-0.01,0.0386,-0.0164,-1.0061,0,0,0,,,,,
1698,0,0.07,-0.01,0.0384,-0.0165,-1.0062,0,0,0,,,,,
1700,0.01,0.07,-0.01,0.0383,-0.0164,-1.0065,0,0,0,,,,,
1702,0,0.06,-0.01,0.0385,-0.0163,-1.0069,0,0,0,,,,,
1704,0.02,0.05,0,0.0386,-0.0163,-1.0064,0,0,0,,,,,
1706,0,0.05,0,0.0388,-0.0161,-1.0071,0,0,0,,,,,
1708,0,0.04,0,0.0385,-0.0161,-1.0067,0,0,0,,,,,
1710,0.01,0.03,0.01,0.0385,-0.0159,-1.0066,0,0,0,,,,,
1712,0.01,0.03,0.02,0.0386,-0.0158,-1.0065,0,0,0,,,,,
1714,0.01,0.02,0.01,0.0386,-0.0158,-1.0063,0,0,0,,,,,
1716,0.02,0.01,0.01,0.0385,-0.0159,-1.0064,0,0,0,,,,,
1719,0.02,0,0.01,0.0384,-0.0157,-1.0065,0,0,0,,,,,
1721,0.02,-0.01,0.02,0.0384,-0.0158,-1.0066,0,0,0,,,,,
1723,0.03,-0.02,0.02,0.0384,-0.0158,-1.0066,0,0,0,,,,,
1725,0.03,-0.02,0.02,0.0383,-0.0157,-1.0066,0,0,0,,,,,
1727,0.03,-0.02,0.02,0.0383,-0.016,-1.0064,0,0,0,,,,,
1729,0.04,-0.03,0.02,0.0385,-0.0161,-1.0063,0,0,0,,,,,
1731,0.04,-0.04,0.02,0.0384,-0.0162,-1.0065,0,0,0,,,,,
1733,0.04,-0.04,0.02,0.0384,-0.0162,-1.0062,0,0,0,,,,,
1735,0.04,-0.04,0.02,0.0383,-0.0163,-1.0063,0,0,0,,,,,
1737,0.06,-0.04,0.01,0.0383,-0.0164,-1.0059,0,0,0,,,,,
1739,0.05,-0.03,0.01,0.0382,-0.0165,-1.0061,0,0,0,,,,,
1741,0.05,-0.03,0,0.0382,-0.0166,-1.0063,0,0,0,,,,,
1743,0.05,-0.04,0,0.0382,-0.0168,-1.0065,0,0,0,,,,,
1745,0.05,-0.02,0,0.0382,-0.0168,-1.0066,0,0,0,,,,,
1747,0.05,-0.02,0,0.0383,-0.0169,-1.0065,0,0,0,,,,,
1751,0.04,-0.01,0,0.0381,-0.017,-1.0063,0,0,0,,,,,
1754,0.04,-0.01,0,0.038,-0.0171,-1.006,0,0,0,,,,,
1756,0.04,0,-0.01,0.0382,-0.0172,-1.006,0,0,0,,,,,
1758,0.04,0.01,0,0.0383,-0.0173,-1.0062,0,0,0,,,,,
1760,0.04,0.01,0,0.0384,-0.0172,-1.0063,0,0,0,,,,,
1762,0.04,0.02,0,0.0385,-0.017,-1.0065,0,0,0,,,,,
1764,0.04,0.02,0,0.0385,-0.0171,-1.0066,0,0,0,,,,,
1766,0.03,0.03,0,0.0386,-0.0172,-1.0064,0,0,0,,,,,
1768,0.03,0.03,0,0.0386,-0.0171,-1.0064,0,0,0,,,,,
1770,0.03,0.03,0,0.0385,-0.0172,-1.0063,0,0,0,,,,,
1772,0.03,0.03,0.01,0.0385,-0.0171,-1.0062,0,0,0,,,,,
1774,0.03,0.04,0.01,0.0386,-0.0172,-1.0062,0,0,0,,,,,
1776,0.03,0.04,0.01,0.0386,-0.0171,-1.0063,0,0,0,,,,,
1778,0.03,0.04,0.02,0.0385,-0.017,-1.0064,0,0,0,,,,,
1780,0.03,0.04,0.01,0.0384,-0.0169,-1.0065,0,0,0,,,,,
1782,0.03,0.04,0.02,0.0385,-0.0169,-1.0066,0,0,0,,,,,
1784,0.03,0.04,0.02,0.0386,-0.0168,-1.0066,0,0,0,,,,,
1787,0.04,0.03,0.02,0.0384,-0.0168,-1.0067,0,0,0,,,,,
1789,0.03,0.02,0.02,0.0383,-0.0167,-1.0067,0,0,0,,,,,
1791,0.03,0.02,0.02,0.0382,-0.0167,-1.0065,0,0,0,,,,,
1793,0.03,0.02,0.02,0.0381,-0.0168,-1.0066,0,0,0,,,,,
1795,0.03,0.02,0.02,0.0381,-0.0167,-1.0068,0,0,0,,,,,
1797,0.04,0.02,0.01,0.0379,-0.0166,-1.007,0,0,0,,,,,
1799,0.04,0.02,0.01,0.0379,-0.0167,-1.0071,0,0,0,,,,,
1801,0.04,0.02,0,0.0379,-0.0167,-1.0067,0,0,0,,,,,
1803,0.04,0.02,-0.01,0.038,-0.0167,-1.0069,0,0,0,,,,,
1805,0.04,0.02,-0.01,0.0379,-0.0166,-1.0068,0,0,0,,,,,
1807,0.05,0.02,-0.01,0.0377,-0.0166,-1.0067,0,0,0,,,,,
1809,0.05,0.02,-0.01,0.0377,-0.0167,-1.0064,0,0,0,,,,,
1811,0.04,0.03,-0.01,0.0377,-0.0166,-1.0063,0,0,0,,,,,
1813,0.04,0.03,-0.02,0.0378,-0.0166,-1.0064,0,0,0,,,,,
1815,0.04,0.04,-0.02,0.0379,-0.0166,-1.0066,0,0,0,,,,,
1817,0.04,0.04,-0.02,0.0379,-0.0165,-1.0066,0,0,0,,,,,
1820,0.04,0.05,-0.02,0.0379,-0.0164,-1.0067,0,0,0,,,,,
1822,0.05,0.05,-0.02,0.038,-0.0164,-1.0068,0,0,0,,,,,
1824,0.05,0.05,-0.02,0.0381,-0.0164,-1.0069,0,0,0,,,,,
1826,0.05,0.05,-0.02,0.0381,-0.0164,-1.0066,0,0,0,,,,,
1828,0.05,0.06,-0.01,0.0383,-0.0165,-1.0065,0,0,0,,,,,
1830,0.06,0.07,0,0.0384,-0.0166,-1.0063,0,0,0,,,,,
1832,0.05,0.07,0,0.0381,-0.0166,-1.0067,0,0,0,,,,,
1834,0.06,0.07,0.01,0.0381,-0.0166,-1.0065,0,0,0,,,,,
1836,0.05,0.07,0.01,0.0382,-0.0167,-1.0067,0,0,0,,,,,
1838,0.05,0.07,0.01,0.0385,-0.0167,-1.0067,0,0,0,,,,,
1840,0.06,0.06,0.01,0.0387,-0.0168,-1.0069,0,0,0,,,,,
1842,0.06,0.06,0.01,0.0387,-0.0167,-1.0068,0,0,0,,,,,
1844,0.06,0.06,0.01,0.0387,-0.0166,-1.0068,0,0,0,,,,,
1846,0.06,0.06,0.01,0.0387,-0.0165,-1.0069,0,0,0,,,,,
1848,0.05,0.05,0.01,0.0389,-0.0165,-1.007,0,0,0,,,,,
1850,0.05,0.05,0.01,0.0389,-0.0164,-1.0069,0,0,0,,,,,
1853,0.05,0.04,0.01,0.0389,-0.0165,-1.0066,0,0,0,,,,,
1855,0.05,0.04,0.02,0.0388,-0.0165,-1.0063,0,0,0,,,,,
1857,0.05,0.05,0.01,0.0388,-0.0164,-1.0064,0,0,0,,,,,
1859,0.05,0.05,0.01,0.0387,-0.0163,-1.0065,0,0,0,,,,,
1861,0.04,0.04,0.01,0.0385,-0.0162,-1.0065,0,0,0,,,,,
1863,0.04,0.04,0.02,0.0388,-0.0162,-1.0063,0,0,0,,,,,
1865,0.04,0.04,0.02,0.039,-0.0162,-1.0063,0,0,0,,,,,
1867,0.04,0.03,0.02,0.039,-0.0162,-1.0063,0,0,0,,,,,
1869,0.04,0.03,0.02,0.0389,-0.0163,-1.0064,0,0,0,,,,,
1871,0.04,0.03,0.02,0.0389,-0.0164,-1.0064,0,0,0,,,,,
1873,0.04,0.02,0.01,0.0388,-0.0165,-1.0062,0,0,0,,,,,
1875,0.04,0.02,0.01,0.0388,-0.0165,-1.006,0,0,0,,,,,
1877,0.04,0.02,0,0.0388,-0.0167,-1.0059,0,0,0,,,,,
1879,0.04,0.02,0,0.039,-0.0168,-1.0058,0,0,0,,,,,
1881,0.04,0.01,0,0.039,-0.0168,-1.0058,0,0,0,,,,,
1884,0.04,0.02,0,0.0391,-0.0167,-1.0059,0,0,0,,,,,
1887,0.03,0.02,0,0.0391,-0.0166,-1.0061,0,0,0,,,,,
1889,0.02,0.02,0,0.0392,-0.0168,-1.0061,0,0,0,,,,,
1891,0.02,0.02,0,0.0392,-0.0169,-1.0061,0,0,0,,,,,
1893,0.02,0.01,-0.01,0.0392,-0.017,-1.0061,0,0,0,,,,,
1895,0.03,0.01,-0.01,0.0391,-0.017,-1.0062,0,0,0,,,,,
1897,0.02,0,0,0.0389,-0.017,-1.0063,0,0,0,,,,,
1899,0.02,0,0,0.039,-0.017,-1.0062,0,0,0,,,,,
1901,0.02,0,0,0.039,-0.0169,-1.006,0,0,0,,,,,
1903,0.02,0,0,0.039,-0.0167,-1.0058,0,0,0,,,,,
1905,0.02,0,0,0.039,-0.0167,-1.0061,0,0,0,,,,,
1907,0.02,0,0.01,0.0391,-0.0167,-1.0064,0,0,0,,,,,
1909,0.02,0,0.02,0.0391,-0.0166,-1.0065,0,0,0,,,,,
1911,0.01,0,0.02,0.0388,-0.0165,-1.0065,0,0,0,,,,,
1913,0.01,0,0.02,0.0388,-0.0166,-1.0063,0,0,0,,,,,
1915,0.01,0,0.02,0.0387,-0.0167,-1.0063,0,0,0,,,,,
1917,0.02,-0.01,0.02,0.0387,-0.0168,-1.0063,0,0,0,,,,,
1920,0.02,-0.01,0.02,0.0387,-0.0166,-1.0063,0,0,0,,,,,
1922,0.01,0,0.02,0.0387,-0.0165,-1.0063,0,0,0,,,,,
1924,0.02,0,0.02,0.0388,-0.0166,-1.0061,0,0,0,,,,,
1926,0.02,0.01,0.01,0.0389,-0.0165,-1.006,0,0,0,,,,,
1928,0.02,0.01,0.01,0.0388,-0.0166,-1.0061,0,0,0,,,,,
1930,0.02,0.01,0.01,0.0388,-0.0166,-1.0062,0,0,0,,,,,
1932,0.02,0.01,0.02,0.0389,-0.0166,-1.0064,0,0,0,,,,,
1934,0.02,0.01,0.02,0.039,-0.0168,-1.0067,0,0,0,,,,,
1936,0.03,0.02,0.01,0.0389,-0.0168,-1.0066,0,0,0,,,,,
1938,0.03,0.02,0.01,0.039,-0.0169,-1.0063,0,0,0,,,,,
1940,0.03,0.02,0,0.0389,-0.017,-1.0063,0,0,0,,,,,
1942,0.04,0.02,-0.01,0.0389,-0.0171,-1.0063,0,0,0,,,,,
1944,0.04,0.03,-0.01,0.0389,-0.0171,-1.0065,0,0,0,,,,,
1946,0.04,0.04,-0.01,0.039,-0.017,-1.0065,0,0,0,,,,,
1948,0.04,0.04,0,0.039,-0.017,-1.0063,0,0,0,,,,,
1950,0.05,0.04,0,0.039,-0.0172,-1.0061,0,0,0,,,,,
1953,0.05,0.04,0,0.0389,-0.0172,-1.0062,0,0,0,,,,,
1955,0.05,0.03,0,0.0388,-0.017,-1.0062,0,0,0,,,,,
1957,0.04,0.03,0,0.0388,-0.017,-1.0064,0,0,0,,,,,
1959,0.04,0.03,-0.01,0.0391,-0.0169,-1.0063,0,0,0,,,,,
1961,0.04,0.03,-0.01,0.039,-0.0169,-1.0062,0,0,0,,,,,
1963,0.04,0.03,-0.01,0.0387,-0.0169,-1.006,0,0,0,,,,,
1965,0.04,0.04,-0.01,0.0386,-0.0167,-1.0059,0,0,0,,,,,
1967,0.04,0.04,0,0.0386,-0.0168,-1.0059,0,0,0,,,,,
1969,0.04,0.03,0,0.0385,-0.0167,-1.0061,0,0,0,,,,,
1971,0.04,0.04,0.01,0.0385,-0.0167,-1.006,0,0,0,,,,,
1973,0.04,0.04,0.01,0.0385,-0.0166,-1.006,0,0,0,,,,,
1975,0.04,0.04,0.01,0.0386,-0.0166,-1.0058,0,0,0,,,,,
1977,0.04,0.03,0.01,0.0386,-0.0167,-1.0059,0,0,0,,,,,
1979,0.04,0.03,0.01,0.0385,-0.0169,-1.006,0,0,0,,,,,
1981,0.04,0.04,0.02,0.0385,-0.0168,-1.0061,0,0,0,,,,,
1983,0.04,0.04,0.02,0.0385,-0.0169,-1.006,0,0,0,,,,,
1986,0.04,0.04,0.02,0.0385,-0.0169,-1.0061,0,0,0,,,,,
1988,0.04,0.04,0.02,0.0385,-0.0169,-1.006,0,0,0,,,,,
1990,0.04,0.04,0.02,0.0384,-0.0167,-1.006,0,0,0,,,,,
1992,0.04,0.04,0.02,0.0384,-0.0168,-1.006,0,0,0,,,,,
1994,0.03,0.04,0.01,0.0385,-0.0167,-1.0058,0,0,0,,,,,
1996,0.04,0.03,0.01,0.0386,-0.0168,-1.0056,0,0,0,,,,,
1998,0.03,0.03,0.01,0.0386,-0.0169,-1.0054,0,0,0,,,,,
2000,0.03,0.03,0.01,0.0385,-0.0169,-1.0052,0,0,0,,,,,
2002,0.03,0.03,0,0.0383,-0.0167,-1.0052,0,0,0,,,,,
2004,0.03,0.03,0.01,0.0382,-0.0167,-1.0051,0,0,0,,,,,
2006,0.03,0.02,0.01,0.0382,-0.0167,-1.0051,0,0,0,,,,,
2008,0.04,0.02,0.01,0.0382,-0.0166,-1.0052,0,0,0,,,,,
2010,0.04,0.02,0.01,0.0383,-0.0163,-1.0052,0,0,0,,,,,
2012,0.04,0.02,0,0.0383,-0.0162,-1.0051,0,0,0,,,,,
2014,0.04,0.02,0,0.0385,-0.0161,-1.005,0,0,0,,,,,
2018,0.04,0.02,-0.01,0.0385,-0.0162,-1.005,0,0,0,,,,,
2021,0.04,0.02,0,0.0385,-0.0163,-1.0051,0,0,0,,,,,
2023,0.04,0.02,0,0.0386,-0.0165,-1.0053,0,0,0,,,,,
2025,0.05,0.02,0,0.0386,-0.0165,-1.0054,0,0,0,,,,,
2027,0.05,0.03,0,0.0387,-0.0165,-1.0057,0,0,0,,,,,
2029,0.04,0.04,0,0.0386,-0.0166,-1.006,0,0,0,,,,,
2031,0.05,0.04,0,0.0386,-0.0164,-1.0062,0,0,0,,,,,
2033,0.05,0.04,-0.01,0.0386,-0.0163,-1.0064,0,0,0,,,,,
2035,0.05,0.03,-0.01,0.0389,-0.0164,-1.0064,0,0,0,,,,,
2037,0.04,0.03,-0.01,0.0389,-0.0165,-1.0066,0,0,0,,,,,
2039,0.04,0.03,-0.02,0.0387,-0.0166,-1.0067,0,0,0,,,,,
2041,0.04,0.03,-0.02,0.0387,-0.0167,-1.0065,0,0,0,,,,,
2043,0.03,0.03,-0.02,0.0387,-0.0168,-1.0065,0,0,0,,,,,
2045,0.03,0.03,-0.02,0.0387,-0.017,-1.0065,0,0,0,,,,,
2047,0.02,0.04,-0.01,0.0386,-0.017,-1.007,0,0,0,,,,,
2049,0.02,0.04,0,0.0386,-0.0169,-1.0072,0,0,0,,,,,
2051,0.02,0.03,0,0.0385,-0.017,-1.0073,0,0,0,,,,,
2054,0.02,0.04,0,0.0384,-0.017,-1.0069,0,0,0,,,,,
2056,0.02,0.03,0,0.0382,-0.0169,-1.0068,0,0,0,,,,,
2058,0.02,0.03,0,0.0381,-0.017,-1.0067,0,0,0,,,,,
2060,0.02,0.03,0,0.0381,-0.017,-1.0067,0,0,0,,,,,
2062,0.02,0.03,0,0.0381,-0.017,-1.0068,0,0,0,,,,,
2064,0.02,0.03,0,0.0382,-0.0171,-1.0067,0,0,0,,,,,
2066,0.02,0.03,0,0.038,-0.0171,-1.0068,0,0,0,,,,,
2068,0.03,0.03,0,0.0382,-0.017,-1.0067,0,0,0,,,,,
2070,0.03,0.03,0.01,0.0384,-0.0169,-1.0069,0,0,0,,,,,
2072,0.03,0.04,0.01,0.0383,-0.0167,-1.007,0,0,0,,,,,
2074,0.04,0.04,0.01,0.0383,-0.0167,-1.0069,0,0,0,,,,,
2076,0.04,0.03,0,0.0383,-0.0166,-1.0067,0,0,0,,,,,
2078,0.03,0.03,0,0.0384,-0.0167,-1.0065,0,0,0,,,,,
2080,0.04,0.02,-0.01,0.0385,-0.0165,-1.0063,0,0,0,,,,,
2082,0.04,0.03,-0.01,0.0385,-0.0163,-1.0063,0,0,0,,,,,
2084,0.04,0.03,-0.01,0.0386,-0.0164,-1.0066,0,0,0,,,,,
2087,0.04,0.03,-0.01,0.0387,-0.0164,-1.0068,0,0,0,,,,,
2089,0.05,0.03,-0.01,0.0387,-0.0162,-1.007,0,0,0,,,,,
2091,0.04,0.02,0,0.0387,-0.0163,-1.0072,0,0,0,,,,,
2093,0.04,0.02,0,0.0388,-0.0162,-1.0072,0,0,0,,,,,
2095,0.04,0.02,0,0.0389,-0.0162,-1.0073,0,0,0,,,,,
2097,0.04,0.02,0,0.0391,-0.0162,-1.0073,0,0,0,,,,,
2099,0.04,0.03,0,0.0391,-0.0162,-1.0072,0,0,0,,,,,
2101,0.04,0.02,0,0.0391,-0.0163,-1.007,0,0,0,,,,,
2103,0.05,0.02,0,0.0391,-0.0164,-1.0071,0,0,0,,,,,
2105,0.05,0.02,0,0.0391,-0.0163,-1.0073,0,0,0,,,,,
2107,0.05,0.03,0,0.0391,-0.0161,-1.0077,0,0,0,,,,,
2109,0.05,0.03,0,0.0391,-0.016,-1.0077,0,0,0,,,,,
2111,0.05,0.04,0,0.0391,-0.016,-1.0075,0,0,0,,,,,
2113,0.05,0.03,0,0.0391,-0.0162,-1.0074,0,0,0,,,,,
2115,0.05,0.03,0,0.0391,-0.0161,-1.0072,0,0,0,,,,,
2117,0.05,0.03,0,0.0393,-0.0161,-1.0068,0,0,0,,,,,
2120,0.05,0.03,0,0.0395,-0.0161,-1.0068,0,0,0,,,,,
2122,0.05,0.03,-0.01,0.0395,-0.0162,-1.0065,0,0,0,,,,,
2124,0.05,0.03,-0.01,0.0395,-0.0161,-1.0064,0,0,0,,,,,
2126,0.05,0.03,-0.01,0.0393,-0.016,-1.0061,0,0,0,,,,,
2128,0.05,0.03,-0.01,0.0391,-0.016,-1.0059,0,0,0,,,,,
2130,0.06,0.03,-0.01,0.039,-0.0162,-1.0059,0,0,0,,,,,
2132,0.05,0.04,-0.01,0.0389,-0.016,-1.0063,0,0,0,,,,,
2134,0.04,0.04,0,0.0389,-0.0161,-1.0064,0,0,0,,,,,
2136,0.04,0.04,0.01,0.0388,-0.0162,-1.0065,0,0,0,,,,,
2138,0.04,0.05,0.01,0.0387,-0.0164,-1.006,0,0,0,,,,,
2140,0.04,0.05,0.01,0.0386,-0.0163,-1.0062,0,0,0,,,,,
2142,0.04,0.05,0.01,0.0383,-0.0163,-1.0066,0,0,0,,,,,
2144,0.03,0.05,0.01,0.0382,-0.0163,-1.0067,0,0,0,,,,,
2146,0.03,0.04,0.01,0.0382,-0.0163,-1.0069,0,0,0,,,,,
2148,0.03,0.04,0.01,0.0382,-0.0162,-1.0071,0,0,0,,,,,
2151,0.02,0.04,0.01,0.0381,-0.0163,-1.0069,0,0,0,,,,,
2154,0.02,0.04,0.01,0.038,-0.0164,-1.0068,0,0,0,,,,,
2156,0.02,0.04,0.01,0.0378,-0.0165,-1.007,0,0,0,,,,,
2158,0.02,0.05,0.01,0.0379,-0.0166,-1.0071,0,0,0,,,,,
2160,0.01,0.04,0.02,0.0381,-0.0165,-1.0073,0,0,0,,,,,
2162,0,0.04,0.01,0.0381,-0.0164,-1.0073,0,0,0,,,,,
2164,0.01,0.04,0.01,0.0381,-0.0165,-1.007,0,0,0,,,,,
2166,0.02,0.04,0,0.0381,-0.0166,-1.0067,0,0,0,,,,,
2168,0.02,0.04,0,0.0381,-0.0167,-1.0066,0,0,0,,,,,
2170,0.03,0.03,0,0.0381,-0.0166,-1.0067,0,0,0,,,,,
2172,0.03,0.03,0,0.038,-0.0167,-1.0066,0,0,0,,,,,
2174,0.04,0.04,0,0.0382,-0.0168,-1.0062,0,0,0,,,,,
2176,0.04,0.04,0,0.0384,-0.0169,-1.0061,0,0,0,,,,,
2178,0.04,0.04,0,0.0385,-0.0169,-1.0057,0,0,0,,,,,
2180,0.04,0.04,0,0.0384,-0.0169,-1.0058,0,0,0,,,,,
2182,0.04,0.04,0,0.0382,-0.0168,-1.0058,0,0,0,,,,,
2184,0.04,0.04,0,0.0383,-0.0169,-1.006,0,0,0,,,,,
2187,0.05,0.04,0,0.0385,-0.017,-1.0059,0,0,0,,,,,
2189,0.05,0.04,0,0.0385,-0.0169,-1.0059,0,0,0,,,,,
2191,0.05,0.04,0,0.0384,-0.0169,-1.0059,0,0,0,,,,,
2193,0.05,0.04,0,0.0384,-0.017,-1.0061,0,0,0,,,,,
2195,0.04,0.04,0,0.0385,-0.0168,-1.0062,0,0,0,,,,,
2197,0.04,0.04,0,0.0385,-0.0168,-1.0062,0,0,0,,,,,
2199,0.04,0.04,0,0.0384,-0.0167,-1.0063,0,0,0,,,,,
2201,0.04,0.04,0,0.0385,-0.0167,-1.0065,0,0,0,,,,,
2203,0.04,0.03,0,0.0387,-0.0168,-1.0064,0,0,0,,,,,
2205,0.04,0.02,0,0.0387,-0.0166,-1.0065,0,0,0,,,,,
2207,0.04,0.02,0,0.0386,-0.0165,-1.0065,0,0,0,,,,,
2209,0.04,0.02,0,0.0386,-0.0165,-1.0068,0,0,0,,,,,
2211,0.04,0.02,0.01,0.0386,-0.0164,-1.0067,0,0,0,,,,,
2213,0.04,0.02,0.01,0.0387,-0.0163,-1.0067,0,0,0,,,,,
2215,0.04,0.02,0.01,0.0387,-0.0163,-1.0066,0,0,0,,,,,
2217,0.04,0.02,0.01,0.0386,-0.0162,-1.0067,0,0,0,,,,,
2220,0.05,0.02,0.01,0.0387,-0.0163,-1.0066,0,0,0,,,,,
2222,0.05,0.02,0.01,0.0386,-0.0163,-1.0067,0,0,0,,,,,
2224,0.05,0.02,0.01,0.0386,-0.0163,-1.0065,0,0,0,,,,,
2226,0.06,0.02,0.02,0.0386,-0.0163,-1.0064,0,0,0,,,,,
2228,0.06,0.02,0.02,0.0387,-0.016,-1.0064,0,0,0,,,,,
2230,0.06,0.02,0.01,0.0388,-0.0161,-1.0062,0,0,0,,,,,
2232,0.06,0.02,0.01,0.0388,-0.0161,-1.0062,0,0,0,,,,,
2234,0.05,0.02,0.02,0.0387,-0.016,-1.0064,0,0,0,,,,,
2236,0.05,0.02,0.02,0.0387,-0.0161,-1.0064,0,0,0,,,,,
2238,0.04,0.02,0.02,0.0386,-0.0161,-1.0063,0,0,0,,,,,
2240,0.04,0.02,0.02,0.0386,-0.0161,-1.0063,0,0,0,,,,,
2242,0.04,0.02,0.02,0.0385,-0.0163,-1.0063,0,0,0,,,,,
2244,0.04,0.03,0.01,0.0385,-0.0163,-1.0065,0,0,0,,,,,
2246,0.04,0.02,0.01,0.0383,-0.0163,-1.0066,0,0,0,,,,,
2248,0.04,0.02,0.01,0.0383,-0.0163,-1.0066,0,0,0,,,,,
2250,0.04,0.01,0.01,0.0384,-0.0162,-1.0067,0,0,0,,,,,
2253,0.04,0.01,0.02,0.0385,-0.0163,-1.0069,0,0,0,,,,,
2255,0.04,0.01,0.02,0.0385,-0.0163,-1.0069,0,0,0,,,,,
2257,0.04,0.01,0.02,0.0385,-0.0164,-1.0071,0,0,0,,,,,
2259,0.04,0.01,0.02,0.0385,-0.0167,-1.0072,0,0,0,,,,,
2261,0.04,0.02,0.02,0.0385,-0.0167,-1.0073,0,0,0,,,,,
2263,0.04,0.02,0.02,0.0387,-0.0167,-1.0072,0,0,0,,,,,
2265,0.04,0.02,0.01,0.0388,-0.0168,-1.007,0,0,0,,,,,
2267,0.05,0.03,0,0.0387,-0.0167,-1.0071,0,0,0,,,,,
2269,0.05,0.03,0,0.0386,-0.0167,-1.0071,0,0,0,,,,,
2271,0.06,0.02,0,0.0385,-0.0166,-1.0072,0,0,0,,,,,
2273,0.06,0.03,0.01,0.0385,-0.0166,-1.0073,0,0,0,,,,,
2275,0.05,0.03,0.01,0.0386,-0.0166,-1.0073,0,0,0,,,,,
2277,0.05,0.03,0.01,0.0386,-0.0166,-1.0072,0,0,0,,,,,
2279,0.05,0.03,0.01,0.0385,-0.0167,-1.0071,0,0,0,,,,,
2281,0.05,0.04,0.01,0.0384,-0.0167,-1.007,0,0,0,,,,,
2285,0.05,0.04,0.01,0.0384,-0.0165,-1.007,0,0,0,,,,,
2288,0.05,0.04,0.01,0.0385,-0.0164,-1.0069,0,0,0,,,,,
2290,0.04,0.04,0.01,0.0385,-0.0163,-1.0067,0,0,0,,,,,
2292,0.04,0.03,0.01,0.0385,-0.0162,-1.0066,0,0,0,,,,,
2294,0.04,0.03,0.01,0.0385,-0.0161,-1.0066,0,0,0,,,,,
2296,0.04,0.03,0.01,0.0383,-0.0162,-1.0067,0,0,0,,,,,
2298,0.04,0.03,0.01,0.0382,-0.0161,-1.0068,0,0,0,,,,,
2300,0.03,0.03,0.01,0.0383,-0.016,-1.0067,0,0,0,,,,,
2302,0.03,0.03,0.02,0.0384,-0.016,-1.0067,0,0,0,,,,,
2304,0.03,0.03,0.01,0.0385,-0.0161,-1.0065,0,0,0,,,,,
2306,0.03,0.03,0.01,0.0385,-0.0161,-1.0065,0,0,0,,,,,
2308,0.03,0.03,0,0.0386,-0.0161,-1.0066,0,0,0,,,,,
2310,0.03,0.03,0,0.0386,-0.016,-1.0068,0,0,0,,,,,
2312,0.02,0.03,0,0.0387,-0.016,-1.0069,0,0,0,,,,,
2314,0.02,0.03,0,0.0388,-0.0159,-1.007,0,0,0,,,,,
2316,0.02,0.02,0,0.0387,-0.0161,-1.0069,0,0,0,,,,,
2318,0.03,0.03,-0.01,0.0386,-0.0161,-1.0069,0,0,0,,,,,
2321,0.03,0.03,-0.01,0.0385,-0.0162,-1.007,0,0,0,,,,,
2323,0.03,0.03,-0.01,0.0386,-0.0162,-1.0072,0,0,0,,,,,
2325,0.02,0.04,-0.02,0.0386,-0.0162,-1.0073,0,0,0,,,,,
2327,0.02,0.04,-0.01,0.0387,-0.0163,-1.0073,0,0,0,,,,,
2329,0.02,0.03,-0.01,0.0386,-0.0163,-1.0074,0,0,0,,,,,
2331,0.02,0.03,-0.01,0.0387,-0.0164,-1.0075,0,0,0,,,,,
2333,0.02,0.03,-0.01,0.0389,-0.0166,-1.0077,0,0,0,,,,,
2335,0.02,0.03,-0.01,0.0389,-0.0167,-1.0079,0,0,0,,,,,
2337,0.02,0.03,-0.01,0.0389,-0.0167,-1.0078,0,0,0,,,,,
2339,0.02,0.03,-0.01,0.039,-0.0168,-1.0076,0,0,0,,,,,
2341,0.02,0.03,-0.01,0.039,-0.0169,-1.0076,0,0,0,,,,,
2343,0.02,0.03,-0.01,0.0389,-0.0169,-1.0077,0,0,0,,,,,
2345,0.02,0.03,-0.02,0.0389,-0.0169,-1.0078,0,0,0,,,,,
2347,0.02,0.03,-0.01,0.0389,-0.0169,-1.0077,0,0,0,,,,,
2349,0.02,0.03,-0.01,0.0389,-0.017,-1.0073,0,0,0,,,,,
2351,0.02,0.03,-0.02,0.0389,-0.017,-1.0074,0,0,0,,,,,
2354,0.03,0.02,-0.02,0.0389,-0.017,-1.0071,0,0,0,,,,,
2356,0.03,0.02,-0.01,0.0389,-0.017,-1.0069,0,0,0,,,,,
2358,0.03,0.02,-0.01,0.0387,-0.0169,-1.0069,0,0,0,,,,,
2360,0.04,0.02,-0.01,0.0388,-0.0169,-1.0069,0,0,0,,,,,
2362,0.04,0.02,-0.01,0.0387,-0.0168,-1.007,0,0,0,,,,,
2364,0.05,0.02,-0.01,0.0387,-0.0168,-1.0064,0,0,0,,,,,
2366,0.04,0.02,-0.01,0.0385,-0.0168,-1.0067,0,0,0,,,,,
2368,0.04,0.02,-0.01,0.0383,-0.017,-1.0067,0,0,0,,,,,
2370,0.05,0.02,-0.01,0.0381,-0.0169,-1.0068,0,0,0,,,,,
2372,0.05,0.01,-0.01,0.0382,-0.0168,-1.0066,0,0,0,,,,,
2374,0.06,0,0,0.0383,-0.0167,-1.0066,0,0,0,,,,,
2376,0.06,0,0,0.0382,-0.0168,-1.0065,0,0,0,,,,,
2378,0.06,0.01,0,0.0383,-0.0167,-1.0067,0,0,0,,,,,
2380,0.05,0.01,0,0.0384,-0.0166,-1.0069,0,0,0,,,,,
2382,0.06,0.01,0,0.0384,-0.0168,-1.007,0,0,0,,,,,
2384,0.05,0.01,0,0.0384,-0.0168,-1.007,0,0,0,,,,,
2387,0.05,0.01,0,0.0385,-0.0168,-1.0073,0,0,0,,,,,
2389,0.06,0,0.01,0.0386,-0.0167,-1.0071,0,0,0,,,,,
2391,0.05,0,0,0.0387,-0.0167,-1.0069,0,0,0,,,,,
2393,0.05,0,0,0.0388,-0.0168,-1.0066,0,0,0,,,,,
2395,0.05,0,0,0.0387,-0.0168,-1.0071,0,0,0,,,,,
2397,0.05,0,0,0.0388,-0.0168,-1.0068,0,0,0,,,,,
2399,0.06,0,0,0.0388,-0.0166,-1.0068,0,0,0,,,,,
2401,0.05,0,0.01,0.0391,-0.0166,-1.0068,0,0,0,,,,,
2403,0.04,0.01,0.01,0.0391,-0.0165,-1.007,0,0,0,,,,,
2405,0.04,0.02,0,0.0389,-0.0166,-1.0069,0,0,0,,,,,
2407,0.04,0.02,0,0.039,-0.0166,-1.0068,0,0,0,,,,,
2409,0.04,0.02,0.01,0.0389,-0.0165,-1.0067,0,0,0,,,,,
2411,0.04,0.02,0.01,0.0388,-0.0165,-1.0067,0,0,0,,,,,
2413,0.03,0.01,0.01,0.0388,-0.0163,-1.0065,0,0,0,,,,,
2415,0.03,0.01,0.01,0.0389,-0.0163,-1.0065,0,0,0,,,,,
2418,0.03,0.02,0.01,0.039,-0.0163,-1.0066,0,0,0,,,,,
2421,0.03,0.03,0.01,0.039,-0.0164,-1.0069,0,0,0,,,,,
2423,0.03,0.03,0.01,0.0391,-0.0166,-1.007,0,0,0,,,,,
2425,0.03,0.03,0.02,0.0392,-0.0164,-1.007,0,0,0,,,,,
2427,0.02,0.02,0.02,0.0392,-0.0163,-1.007,0,0,0,,,,,
2429,0.02,0.02,0.02,0.0393,-0.0163,-1.0069,0,0,0,,,,,
2431,0.02,0.02,0.02,0.0393,-0.0162,-1.0069,0,0,0,,,,,
2433,0.02,0.02,0.02,0.0392,-0.0162,-1.0069,0,0,0,,,,,
2435,0.02,0.02,0.02,0.0393,-0.0163,-1.0067,0,0,0,,,,,
2437,0.02,0.01,0.02,0.0394,-0.0163,-1.0066,0,0,0,,,,,
2439,0.02,0.02,0.02,0.0395,-0.0162,-1.0066,0,0,0,,,,,
2441,0.01,0.02,0.02,0.0396,-0.0162,-1.0065,0,0,0,,,,,
2443,0.01,0.02,0.02,0.0395,-0.0163,-1.0066,0,0,0,,,,,
2445,0.02,0.01,0.03,0.0394,-0.0163,-1.0067,0,0,0,,,,,
2447,0.02,0.01,0.03,0.0392,-0.0162,-1.0069,0,0,0,,,,,
2449,0.02,0.01,0.02,0.0389,-0.0162,-1.0068,0,0,0,,,,,
2451,0.02,0,0.02,0.039,-0.0161,-1.0068,0,0,0,,,,,
2454,0.02,0,0.02,0.0388,-0.016,-1.007,0,0,0,,,,,
2456,0.02,0,0.02,0.0385,-0.0161,-1.0069,0,0,0,,,,,
2458,0.02,0,0.01,0.0386,-0.0161,-1.0066,0,0,0,,,,,
2460,0.02,0,0.01,0.0387,-0.016,-1.0067,0,0,0,,,,,
2462,0.02,0,0.01,0.0387,-0.016,-1.0068,0,0,0,,,,,
2464,0.03,0,0.01,0.0387,-0.0159,-1.0069,0,0,0,,,,,
2466,0.04,0,0.01,0.0386,-0.0158,-1.0071,0,0,0,,,,,
2468,0.04,0,0.01,0.0386,-0.0159,-1.0072,0,0,0,,,,,
2470,0.04,-0.01,0,0.0386,-0.016,-1.0071,0,0,0,,,,,
2472,0.04,-0.01,0,0.0386,-0.016,-1.0072,0,0,0,,,,,
2474,0.05,-0.01,0,0.0386,-0.0159,-1.0071,0,0,0,,,,,
2476,0.05,-0.01,0,0.0384,-0.0158,-1.0071,0,0,0,,,,,
2478,0.05,-0.01,0,0.0383,-0.016,-1.007,0,0,0,,,,,
2480,0.05,-0.01,-0.01,0.0382,-0.0161,-1.0068,0,0,0,,,,,
2482,0.05,-0.02,-0.01,0.0382,-0.0161,-1.0068,0,0,0,,,,,
2484,0.05,-0.02,-0.01,0.0382,-0.0161,-1.0066,0,0,0,,,,,
2487,0.05,-0.02,-0.01,0.0383,-0.0161,-1.0066,0,0,0,,,,,
2489,0.05,-0.02,-0.01,0.0381,-0.0161,-1.0069,0,0,0,,,,,
2491,0.04,-0.02,-0.01,0.038,-0.016,-1.0068,0,0,0,,,,,
2493,0.04,-0.03,-0.01,0.0381,-0.016,-1.0069,0,0,0,,,,,
2495,0.04,-0.03,-0.01,0.0383,-0.0161,-1.0068,0,0,0,,,,,
2497,0.03,-0.03,-0.01,0.0382,-0.0162,-1.0068,0,0,0,,,,,
2499,0.03,-0.03,-0.01,0.0383,-0.0163,-1.0068,0,0,0,,,,,
2501,0.03,-0.04,-0.01,0.0381,-0.0162,-1.0068,0,0,0,,,,,
2503,0.02,-0.04,0,0.0381,-0.0162,-1.0069,0,0,0,,,,,
2505,0.02,-0.04,-0.01,0.0384,-0.0162,-1.0069,0,0,0,,,,,
2507,0.02,-0.04,-0.01,0.0388,-0.0164,-1.007,0,0,0,,,,,
2509,0.02,-0.03,0,0.039,-0.0164,-1.0068,0,0,0,,,,,
2511,0.02,-0.03,0,0.0391,-0.0164,-1.0067,0,0,0,,,,,
2513,0.02,-0.02,0.01,0.0391,-0.0165,-1.0067,0,0,0,,,,,
2515,0.02,-0.02,0.01,0.0392,-0.0166,-1.0068,0,0,0,,,,,
2517,0.02,-0.02,0.02,0.0391,-0.0166,-1.0068,0,0,0,,,,,
2520,0.02,-0.02,0.02,0.0392,-0.0166,-1.0069,0,0,0,,,,,
2522,0.03,-0.01,0.02,0.0392,-0.0166,-1.0067,0,0,0,,,,,
2524,0.03,0,0.02,0.039,-0.0167,-1.0066,0,0,0,,,,,
2526,0.03,0,0.02,0.0389,-0.0167,-1.0066,0,0,0,,,,,
2528,0.03,0,0.02,0.0391,-0.0166,-1.0066,0,0,0,,,,,
2530,0.03,0.01,0.01,0.039,-0.0167,-1.0065,0,0,0,,,,,
2532,0.03,0.01,0.01,0.0391,-0.0167,-1.0067,0,0,0,,,,,
2534,0.04,0.02,0.02,0.039,-0.0169,-1.0068,0,0,0,,,,,
2536,0.04,0.02,0.02,0.0388,-0.0169,-1.0068,0,0,0,,,,,
2538,0.04,0.02,0.02,0.0387,-0.0168,-1.0068,0,0,0,,,,,
2540,0.04,0.02,0.01,0.0387,-0.0167,-1.0072,0,0,0,,,,,
2542,0.04,0.02,0.01,0.0388,-0.0166,-1.0074,0,0,0,,,,,
2544,0.04,0.02,0,0.039,-0.0166,-1.0076,0,0,0,,,,,
2546,0.04,0.02,0,0.0389,-0.0166,-1.0077,0,0,0,,,,,
2548,0.04,0.02,0,0.0388,-0.0166,-1.0078,0,0,0,,,,,
2552,0.04,0.03,0,0.0389,-0.0166,-1.0077,0,0,0,,,,,
2555,0.04,0.03,-0.01,0.0389,-0.0166,-1.0079,0,0,0,,,,,
2557,0.04,0.02,-0.01,0.0389,-0.0166,-1.0081,0,0,0,,,,,
2559,0.04,0.02,-0.01,0.0388,-0.0167,-1.0082,0,0,0,,,,,
2561,0.04,0.02,0,0.0386,-0.0168,-1.0081,0,0,0,,,,,
2563,0.04,0.03,0,0.0384,-0.0167,-1.0083,0,0,0,,,,,
2565,0.04,0.03,0,0.0384,-0.0167,-1.0084,0,0,0,,,,,
2567,0.04,0.03,-0.01,0.0383,-0.0168,-1.0082,0,0,0,,,,,
2569,0.04,0.03,-0.01,0.0383,-0.0168,-1.0079,0,0,0,,,,,
2571,0.04,0.04,-0.01,0.0384,-0.0168,-1.0077,0,0,0,,,,,
2573,0.04,0.04,0,0.0385,-0.0168,-1.0074,0,0,0,,,,,
2575,0.03,0.04,0,0.0385,-0.0169,-1.0073,0,0,0,,,,,
2577,0.04,0.04,0,0.0382,-0.0169,-1.0069,0,0,0,,,,,
2579,0.04,0.03,0,0.0383,-0.0168,-1.0067,0,0,0,,,,,
2581,0.04,0.03,0,0.0383,-0.0166,-1.0066,0,0,0,,,,,
2583,0.03,0.02,0,0.0382,-0.0167,-1.0065,0,0,0,,,,,
2585,0.04,0.03,0,0.0381,-0.0166,-1.0064,0,0,0,,,,,
2588,0.03,0.03,0,0.0381,-0.0166,-1.0061,0,0,0,,,,,
2590,0.03,0.03,0,0.0381,-0.0165,-1.0062,0,0,0,,,,,
2592,0.03,0.03,-0.01,0.0382,-0.0164,-1.0062,0,0,0,,,,,
2594,0.03,0.03,0,0.0384,-0.0164,-1.0062,0,0,0,,,,,
2596,0.02,0.03,0,0.0385,-0.0166,-1.006,0,0,0,,,,,
2598,0.02,0.03,0,0.0384,-0.0165,-1.006,0,0,0,,,,,
2600,0.02,0.04,0,0.0384,-0.0164,-1.0057,0,0,0,,,,,
2602,0.03,0.04,0.01,0.0383,-0.0164,-1.006,0,0,0,,,,,
2604,0.03,0.05,0,0.0382,-0.0162,-1.0061,0,0,0,,,,,
2606,0.03,0.05,0,0.0381,-0.0163,-1.0061,0,0,0,,,,,
2608,0.03,0.06,0.01,0.0382,-0.0162,-1.0066,0,0,0,,,,,
2610,0.03,0.07,0.01,0.0384,-0.0162,-1.0068,0,0,0,,,,,
2612,0.03,0.07,0.01,0.0384,-0.0162,-1.0067,0,0,0,,,,,
2614,0.03,0.07,0.01,0.0385,-0.0163,-1.0069,0,0,0,,,,,
2616,0.03,0.07,0.01,0.0387,-0.0164,-1.0069,0,0,0,,,,,
2618,0.03,0.07,0.02,0.0389,-0.0163,-1.0068,0,0,0,,,,,
2621,0.03,0.07,0.02,0.0391,-0.0162,-1.0064,0,0,0,,,,,
2623,0.04,0.07,0.02,0.0391,-0.0161,-1.0065,0,0,0,,,,,
2625,0.03,0.08,0.02,0.0391,-0.016,-1.0064,0,0,0,,,,,
2627,0.03,0.07,0.02,0.0389,-0.0159,-1.0064,0,0,0,,,,,
2629,0.04,0.07,0.02,0.039,-0.0159,-1.0063,0,0,0,,,,,
2631,0.04,0.07,0.02,0.0391,-0.0159,-1.0068,0,0,0,,,,,
2633,0.04,0.06,0.02,0.0392,-0.0159,-1.0068,0,0,0,,,,,
2635,0.04,0.05,0.02,0.0391,-0.0162,-1.0067,0,0,0,,,,,
2637,0.04,0.04,0.02,0.0391,-0.0162,-1.0066,0,0,0,,,,,
2639,0.03,0.04,0.02,0.039,-0.0163,-1.0064,0,0,0,,,,,
2641,0.04,0.04,0.02,0.0389,-0.0162,-1.0063,0,0,0,,,,,
2643,0.03,0.03,0.02,0.0389,-0.0163,-1.0063,0,0,0,,,,,
2645,0.03,0.02,0.02,0.0388,-0.0163,-1.0063,0,0,0,,,,,
2647,0.03,0.02,0.02,0.0388,-0.0163,-1.0064,0,0,0,,,,,
2649,0.03,0.02,0.02,0.0386,-0.0164,-1.0068,0,0,0,,,,,
2651,0.03,0.02,0.02,0.0385,-0.0165,-1.0069,0,0,0,,,,,
2654,0.03,0.02,0.01,0.0386,-0.0165,-1.0074,0,0,0,,,,,
2656,0.03,0.02,0.01,0.0385,-0.0167,-1.0076,0,0,0,,,,,
2658,0.04,0.01,0.01,0.0386,-0.0167,-1.0077,0,0,0,,,,,
2660,0.03,0,0.01,0.0386,-0.0167,-1.0077,0,0,0,,,,,
2662,0.03,0,0.01,0.0385,-0.0167,-1.0076,0,0,0,,,,,
2664,0.03,-0.01,0,0.0384,-0.0168,-1.0073,0,0,0,,,,,
2666,0.03,-0.01,0,0.0384,-0.0169,-1.0074,0,0,0,,,,,
2668,0.03,-0.01,0,0.0383,-0.0168,-1.0075,0,0,0,,,,,
2670,0.04,-0.02,0,0.0383,-0.0167,-1.0075,0,0,0,,,,,
2672,0.04,-0.02,0,0.0382,-0.0169,-1.0075,0,0,0,,,,,
2674,0.04,-0.02,0.01,0.0383,-0.0168,-1.0077,0,0,0,,,,,
2676,0.04,-0.02,0.01,0.0381,-0.0167,-1.0076,0,0,0,,,,,
2678,0.04,-0.02,0.01,0.038,-0.0167,-1.0076,0,0,0,,,,,
2680,0.04,-0.02,0.01,0.0379,-0.0167,-1.0074,0,0,0,,,,,
2682,0.03,-0.03,0.01,0.0378,-0.0166,-1.0076,0,0,0,,,,,
2685,0.03,-0.03,0.02,0.0378,-0.0166,-1.0071,0,0,0,,,,,
2688,0.03,-0.02,0.02,0.0379,-0.0166,-1.0068,0,0,0,,,,,
2690,0.03,-0.02,0.02,0.0378,-0.0166,-1.0067,0,0,0,,,,,
2692,0.04,-0.02,0.01,0.0378,-0.0166,-1.0069,0,0,0,,,,,
2694,0.04,-0.01,0.01,0.038,-0.0165,-1.0068,0,0,0,,,,,
2696,0.04,0,0.01,0.038,-0.0166,-1.007,0,0,0,,,,,
2698,0.04,0,0,0.0381,-0.0164,-1.007,0,0,0,,,,,
2700,0.05,0,0.01,0.038,-0.0166,-1.0068,0,0,0,,,,,
2702,0.05,0,0.01,0.0381,-0.0165,-1.0066,0,0,0,,,,,
2704,0.05,0,0,0.0381,-0.0164,-1.0066,0,0,0,,,,,
2706,0.05,0,0,0.0382,-0.0164,-1.0062,0,0,0,,,,,
2708,0.04,0.01,0,0.0382,-0.0163,-1.0066,0,0,0,,,,,
2710,0.04,0.01,0,0.0383,-0.0164,-1.0063,0,0,0,,,,,
2712,0.05,0.01,0,0.0384,-0.0164,-1.0061,0,0,0,,,,,
2714,0.05,0.01,0,0.0386,-0.0165,-1.006,0,0,0,,,,,
2716,0.06,0.01,0,0.0385,-0.0167,-1.0057,0,0,0,,,,,
2718,0.06,0.01,0,0.0384,-0.0167,-1.0061,0,0,0,,,,,
2721,0.05,0.01,0.01,0.0385,-0.0167,-1.0062,0,0,0,,,,,
2723,0.05,0.01,0.01,0.0386,-0.0169,-1.0061,0,0,0,,,,,
2725,0.04,0.02,0.02,0.0386,-0.0169,-1.0063,0,0,0,,,,,
2727,0.04,0.01,0.02,0.0386,-0.0167,-1.0064,0,0,0,,,,,
2729,0.04,0.01,0.01,0.0386,-0.0168,-1.0064,0,0,0,,,,,
2731,0.04,0.02,0.01,0.0387,-0.0168,-1.0066,0,0,0,,,,,
2733,0.03,0.02,0,0.0387,-0.0169,-1.0067,0,0,0,,,,,
2735,0.03,0.03,0,0.0388,-0.0168,-1.0066,0,0,0,,,,,
2737,0.03,0.03,0,0.0389,-0.017,-1.0067,0,0,0,,,,,
2739,0.04,0.03,0,0.039,-0.0171,-1.0061,0,0,0,,,,,
2741,0.04,0.03,0,0.0391,-0.017,-1.006,0,0,0,,,,,
2743,0.04,0.03,0,0.0391,-0.017,-1.0062,0,0,0,,,,,
2745,0.04,0.03,0,0.039,-0.017,-1.0062,0,0,0,,,,,
2747,0.04,0.02,0,0.0391,-0.017,-1.0064,0,0,0,,,,,
2749,0.04,0.02,0,0.039,-0.017,-1.0061,0,0,0,,,,,
2751,0.05,0.02,0,0.0387,-0.0169,-1.0061,0,0,0,,,,,
2754,0.05,0.02,0,0.0384,-0.0168,-1.0062,0,0,0,,,,,
2756,0.05,0.01,0,0.0385,-0.0168,-1.0064,0,0,0,,,,,
2758,0.05,0.01,0,0.0386,-0.0169,-1.0061,0,0,0,,,,,
2760,0.06,0,0,0.0388,-0.0168,-1.0062,0,0,0,,,,,
2762,0.07,0,0.01,0.0388,-0.0168,-1.006,0,0,0,,,,,
2764,0.07,-0.01,0.01,0.0388,-0.0168,-1.0059,0,0,0,,,,,
2766,0.07,-0.01,0.01,0.0389,-0.0167,-1.0058,0,0,0,,,,,
2768,0.07,-0.02,0.01,0.0388,-0.0166,-1.0061,0,0,0,,,,,
2770,0.07,-0.01,0,0.0388,-0.0168,-1.0068,0,0,0,,,,,
2772,0.06,-0.01,0,0.0388,-0.0168,-1.0072,0,0,0,,,,,
2774,0.06,-0.01,0,0.0388,-0.0168,-1.0069,0,0,0,,,,,
2776,0.06,0,0,0.0389,-0.0168,-1.0067,0,0,0,,,,,
2778,0.06,0,0,0.0389,-0.0167,-1.0069,0,0,0,,,,,
2780,0.07,0,0,0.0389,-0.0165,-1.0068,0,0,0,,,,,
2782,0.06,0,0,0.0391,-0.0165,-1.0065,0,0,0,,,,,
2784,0.06,0,-0.01,0.0393,-0.0165,-1.0066,0,0,0,,,,,
2787,0.06,0,-0.01,0.0392,-0.0165,-1.0064,0,0,0,,,,,
2789,0.06,0.01,-0.01,0.0391,-0.0166,-1.0065,0,0,0,,,,,
2791,0.05,0.01,-0.01,0.039,-0.0166,-1.0064,0,0,0,,,,,
2793,0.04,0.02,-0.01,0.039,-0.0167,-1.0066,0,0,0,,,,,
2795,0.03,0.02,-0.01,0.039,-0.0167,-1.0066,0,0,0,,,,,
2797,0.03,0.02,-0.01,0.0389,-0.0168,-1.0068,0,0,0,,,,,
2799,0.02,0.02,0,0.0388,-0.0168,-1.0066,0,0,0,,,,,
2801,0.03,0.02,0.01,0.0387,-0.0167,-1.0062,0,0,0,,,,,
2803,0.03,0.02,0.01,0.0385,-0.0165,-1.0062,0,0,0,,,,,
2805,0.03,0.02,0.02,0.0385,-0.0165,-1.0064,0,0,0,,,,,
2807,0.03,0.02,0.02,0.0384,-0.0165,-1.0066,0,0,0,,,,,
2809,0.03,0.01,0.02,0.0384,-0.0167,-1.0063,0,0,0,,,,,
2811,0.03,0.01,0.01,0.0385,-0.0168,-1.0062,0,0,0,,,,,
2813,0.03,0.02,0.01,0.0386,-0.0167,-1.0064,0,0,0,,,,,
2815,0.03,0.02,0.01,0.0386,-0.0166,-1.0065,0,0,0,,,,,
2819,0.03,0.03,0.01,0.0384,-0.0167,-1.0064,0,0,0,,,,,
2822,0.03,0.03,0,0.0383,-0.0166,-1.0064,0,0,0,,,,,
2824,0.03,0.04,0,0.0384,-0.0165,-1.0065,0,0,0,,,,,
2826,0.04,0.04,0,0.0385,-0.0165,-1.0067,0,0,0,,,,,
2828,0.04,0.04,0,0.0384,-0.0166,-1.0068,0,0,0,,,,,
2830,0.04,0.04,0.01,0.0385,-0.0166,-1.0067,0,0,0,,,,,
2832,0.04,0.04,0.01,0.0386,-0.0166,-1.0066,0,0,0,,,,,
2834,0.05,0.03,0.01,0.0387,-0.0165,-1.0066,0,0,0,,,,,
2836,0.04,0.03,0.01,0.0388,-0.0166,-1.0066,0,0,0,,,,,
2838,0.04,0.04,0.01,0.0389,-0.0166,-1.0066,0,0,0,,,,,
2840,0.04,0.04,0.01,0.039,-0.0165,-1.0066,0,0,0,,,,,
2842,0.04,0.04,0.01,0.039,-0.0163,-1.0068,0,0,0,,,,,
2844,0.04,0.04,0.01,0.0391,-0.0163,-1.0068,0,0,0,,,,,
2846,0.03,0.04,0.01,0.039,-0.0164,-1.0067,0,0,0,,,,,
2848,0.03,0.04,0.01,0.0389,-0.0164,-1.0066,0,0,0,,,,,
2850,0.02,0.04,0.01,0.039,-0.0163,-1.0064,0,0,0,,,,,
2852,0.03,0.04,0.01,0.039,-0.0162,-1.0065,0,0,0,,,,,
2855,0.03,0.04,0.01,0.039,-0.0163,-1.0064,0,0,0,,,,,
2857,0.03,0.04,0.01,0.0389,-0.0162,-1.0063,0,0,0,,,,,
2859,0.03,0.04,0,0.039,-0.0161,-1.0062,0,0,0,,,,,
2861,0.03,0.04,0,0.0389,-0.0161,-1.0063,0,0,0,,,,,
2863,0.03,0.04,0,0.0389,-0.0161,-1.0063,0,0,0,,,,,
2865,0.03,0.04,0,0.0389,-0.0161,-1.0062,0,0,0,,,,,
2867,0.04,0.04,0,0.0387,-0.0162,-1.0061,0,0,0,,,,,
2869,0.04,0.04,0,0.0387,-0.0161,-1.0063,0,0,0,,,,,
2871,0.04,0.04,0,0.0386,-0.0163,-1.0062,0,0,0,,,,,
2873,0.04,0.04,0,0.0385,-0.0165,-1.0064,0,0,0,,,,,
2875,0.05,0.04,0,0.0383,-0.0166,-1.0066,0,0,0,,,,,
2877,0.05,0.04,0,0.0385,-0.0165,-1.0069,0,0,0,,,,,
2879,0.06,0.04,0.01,0.0387,-0.0166,-1.007,0,0,0,,,,,
2881,0.06,0.04,0.01,0.0387,-0.0166,-1.0071,0,0,0,,,,,
2883,0.06,0.03,0.01,0.0388,-0.0167,-1.0069,0,0,0,,,,,
2885,0.05,0.03,0.01,0.0387,-0.0168,-1.007,0,0,0,,,,,
2888,0.05,0.02,0.01,0.0387,-0.0168,-1.007,0,0,0,,,,,
2890,0.04,0.02,0.02,0.0385,-0.0167,-1.0072,0,0,0,,,,,
2892,0.05,0.01,0.02,0.0386,-0.0168,-1.0071,0,0,0,,,,,
2894,0.05,0.01,0.02,0.0387,-0.0168,-1.0071,0,0,0,,,,,
2896,0.04,0.01,0.01,0.0389,-0.0168,-1.0071,0,0,0,,,,,
2898,0.03,0.02,0.01,0.039,-0.0168,-1.0072,0,0,0,,,,,
2900,0.03,0.02,0.01,0.039,-0.0169,-1.0071,0,0,0,,,,,
2902,0.04,0.02,0,0.0389,-0.017,-1.0071,0,0,0,,,,,
2904,0.04,0.02,0,0.039,-0.0169,-1.0068,0,0,0,,,,,
2906,0.03,0.02,0,0.0391,-0.0168,-1.0067,0,0,0,,,,,
2908,0.03,0.01,0,0.0389,-0.0169,-1.0064,0,0,0,,,,,
2910,0.03,0.02,0,0.0389,-0.0168,-1.0065,0,0,0,,,,,
2912,0.04,0.02,0,0.0389,-0.0168,-1.0064,0,0,0,,,,,
2914,0.04,0.02,0,0.0388,-0.0168,-1.0065,0,0,0,,,,,
2916,0.04,0.02,0,0.0387,-0.0166,-1.0064,0,0,0,,,,,
2918,0.05,0.02,0,0.0386,-0.0166,-1.0065,0,0,0,,,,,
2921,0.05,0.02,-0.01,0.0385,-0.0165,-1.0066,0,0,0,,,,,
2923,0.05,0.03,-0.01,0.0384,-0.0164,-1.0067,0,0,0,,,,,
2925,0.05,0.03,-0.01,0.0383,-0.0164,-1.0066,0,0,0,,,,,
2927,0.06,0.02,-0.02,0.0381,-0.0164,-1.0066,0,0,0,,,,,
2929,0.06,0.02,-0.02,0.038,-0.0164,-1.0064,0,0,0,,,,,
2931,0.06,0.02,-0.02,0.0378,-0.0162,-1.0064,0,0,0,,,,,
2933,0.06,0.02,-0.02,0.0379,-0.016,-1.0064,0,0,0,,,,,
2935,0.06,0.02,-0.02,0.0378,-0.0159,-1.0065,0,0,0,,,,,
2937,0.06,0.02,-0.02,0.0379,-0.016,-1.0065,0,0,0,,,,,
2939,0.06,0.02,-0.02,0.038,-0.0159,-1.0066,0,0,0,,,,,
2941,0.06,0.02,-0.01,0.038,-0.0158,-1.0066,0,0,0,,,,,
2943,0.05,0.02,-0.01,0.0379,-0.0157,-1.0067,0,0,0,,,,,
2945,0.04,0.02,0,0.038,-0.0157,-1.0066,0,0,0,,,,,
2947,0.04,0.02,0,0.0381,-0.0158,-1.0064,0,0,0,,,,,
2949,0.04,0.03,0,0.0383,-0.0158,-1.0061,0,0,0,,,,,
2952,0.04,0.02,0,0.0383,-0.0157,-1.006,0,0,0,,,,,
2955,0.04,0.02,0,0.0384,-0.0157,-1.006,0,0,0,,,,,
2957,0.03,0.02,0,0.0385,-0.0157,-1.0064,0,0,0,,,,,
2959,0.03,0.02,0,0.0386,-0.0157,-1.0064,0,0,0,,,,,
2961,0.02,0.02,0,0.0386,-0.0158,-1.0064,0,0,0,,,,,
2963,0.02,0.02,0,0.0387,-0.016,-1.0065,0,0,0,,,,,
2965,0.02,0.02,0,0.0388,-0.0161,-1.0065,0,0,0,,,,,
2967,0.02,0.02,0,0.0388,-0.0162,-1.0066,0,0,0,,,,,
2969,0.02,0.02,0,0.0388,-0.0162,-1.0066,0,0,0,,,,,
2971,0.02,0.02,0.01,0.0387,-0.0162,-1.0066,0,0,0,,,,,
2973,0.02,0.02,0.01,0.0389,-0.0162,-1.0066,0,0,0,,,,,
2975,0.03,0.02,0.01,0.0389,-0.0163,-1.0064,0,0,0,,,,,
2977,0.03,0.02,0,0.0389,-0.0163,-1.0066,0,0,0,,,,,
2979,0.03,0.02,0.01,0.039,-0.0162,-1.0066,0,0,0,,,,,
2981,0.04,0.02,0.01,0.0389,-0.0163,-1.0068,0,0,0,,,,,
2983,0.04,0.02,0.01,0.0389,-0.0165,-1.0066,0,0,0,,,,,
2985,0.04,0.02,0.01,0.0388,-0.0166,-1.0065,0,0,0,,,,,
2988,0.04,0.02,0.01,0.0388,-0.0165,-1.0061,0,0,0,,,,,
2990,0.05,0.02,0.01,0.0388,-0.0163,-1.0061,0,0,0,,,,,
2992,0.05,0.02,0.01,0.0387,-0.0163,-1.0064,0,0,0,,,,,
2994,0.05,0.02,0.02,0.0388,-0.0162,-1.0063,0,0,0,,,,,
2996,0.05,0.02,0.02,0.0389,-0.0161,-1.0065,0,0,0,,,,,
2998,0.05,0.02,0.02,0.0389,-0.0161,-1.0066,0,0,0,,,,,
3000,0.05,0.02,0.02,0.0389,-0.0161,-1.0066,0,0,0,,,,,
3002,0.05,0.02,0.01,0.039,-0.0162,-1.0068,0,0,0,,,,,
3004,0.04,0.02,0.01,0.0389,-0.0163,-1.0068,0,0,0,,,,,
3006,0.04,0.02,0.01,0.0389,-0.0162,-1.0069,0,0,0,,,,,
3008,0.04,0.01,0.01,0.0389,-0.0163,-1.0069,0,0,0,,,,,
3010,0.04,0.01,0,0.0389,-0.0163,-1.0069,0,0,0,,,,,
3012,0.03,0,0,0.0391,-0.0162,-1.0068,0,0,0,,,,,
3014,0.03,0,0,0.0391,-0.0161,-1.0067,0,0,0,,,,,
3016,0.04,0,0,0.0392,-0.0162,-1.0066,0,0,0,,,,,
3018,0.04,0,0,0.0391,-0.0163,-1.0069,0,0,0,,,,,
3021,0.04,-0.01,0,0.039,-0.0163,-1.0068,0,0,0,,,,,
3023,0.04,-0.01,0,0.0391,-0.0164,-1.0064,0,0,0,,,,,
3025,0.04,-0.01,0,0.039,-0.0165,-1.0065,0,0,0,,,,,
3027,0.04,-0.01,0,0.0389,-0.0167,-1.0063,0,0,0,,,,,
3029,0.04,-0.01,0,0.0387,-0.0167,-1.0061,0,0,0,,,,,
3031,0.03,-0.02,0,0.0387,-0.0168,-1.0062,0,0,0,,,,,
3033,0.04,-0.02,0,0.0387,-0.0169,-1.0058,0,0,0,,,,,
3035,0.04,-0.03,-0.01,0.0386,-0.0169,-1.0057,0,0,0,,,,,
3037,0.04,-0.03,-0.01,0.0386,-0.0171,-1.0056,0,0,0,,,,,
3039,0.04,-0.02,0,0.0385,-0.017,-1.0058,0,0,0,,,,,
3041,0.05,-0.03,-0.01,0.0385,-0.0172,-1.0059,0,0,0,,,,,
3043,0.05,-0.02,-0.01,0.0384,-0.0173,-1.0061,0,0,0,,,,,
3045,0.05,-0.02,-0.01,0.0384,-0.0174,-1.0062,0,0,0,,,,,
3047,0.04,-0.02,-0.01,0.0384,-0.0173,-1.0063,0,0,0,,,,,
3049,0.04,-0.01,-0.01,0.0385,-0.0172,-1.0063,0,0,0,,,,,
3051,0.03,-0.01,-0.01,0.0386,-0.0173,-1.0065,0,0,0,,,,,
3054,0.03,-0.01,-0.02,0.0386,-0.0172,-1.0067,0,0,0,,,,,
3056,0.02,-0.01,-0.02,0.0388,-0.0171,-1.0067,0,0,0,,,,,
3058,0.02,-0.02,-0.02,0.0389,-0.017,-1.0066,0,0,0,,,,,
3060,0.03,-0.02,-0.02,0.0391,-0.017,-1.0065,0,0,0,,,,,
3062,0.03,-0.02,-0.02,0.0392,-0.0169,-1.0064,0,0,0,,,,,
3064,0.03,-0.01,-0.01,0.0392,-0.0169,-1.0065,0,0,0,,,,,
3066,0.03,0,-0.01,0.0392,-0.0169,-1.0066,0,0,0,,,,,
3068,0.03,0.01,-0.01,0.0393,-0.0169,-1.0067,0,0,0,,,,,
3070,0.03,0.01,-0.01,0.0394,-0.017,-1.0065,0,0,0,,,,,
3072,0.03,0.02,-0.01,0.0393,-0.0169,-1.0063,0,0,0,,,,,
3074,0.03,0.02,-0.01,0.0393,-0.0167,-1.0062,0,0,0,,,,,
3076,0.03,0.01,-0.01,0.0392,-0.0164,-1.0062,0,0,0,,,,,
3078,0.03,0.01,-0.01,0.0392,-0.0164,-1.0065,0,0,0,,,,,
3080,0.04,0.01,-0.01,0.039,-0.0165,-1.0066,0,0,0,,,,,
3082,0.04,0.02,0,0.0389,-0.0165,-1.0066,0,0,0,,,,,
3086,0.05,0.02,0,0.0389,-0.0166,-1.0067,0,0,0,,,,,
3089,0.05,0,,,,,0,0,0,,,,,
3091,11.41,51.75,-106.32,0.1841,0.929,0.1413,0,0,0,,,,,
3093,11.87,44.12,-98.95,0.1524,0.9372,0.1443,0,0,0,,,,,
3095,16.32,26.17,-87.13,0.0954,0.9455,0.1488,0,0,0,,,,,
3097,23.31,4.44,-75.18,0.0431,0.9655,0.1402,0,0,0,,,,,
3099,26.94,-11.04,-62.39,0.0309,0.9681,0.1306,0,0,0,,,,,
3101,26.62,-16.46,-54.7,0.0319,0.9667,0.1287,0,0,0,,,,,
3103,25.77,-20.18,-47.36,0.0136,0.9642,0.1275,0,0,0,,,,,
3105,22.71,-19.51,-42.25,-0.0103,0.9663,0.1105,0,0,0,,,,,
3107,16.3,-13.94,-34.06,-0.0327,0.969,0.0934,0,0,0,,,,,
3109,10.04,-8.62,-23.85,-0.0624,0.9662,0.0881,0,0,0,,,,,
3111,6.14,-6.93,-16.42,-0.0881,0.9674,0.0814,0,0,0,,,,,
3113,3.88,-6.9,-11.6,-0.0984,0.9681,0.0747,0,0,0,,,,,
3115,1.9,-4.96,-3.52,-0.1007,0.9714,0.0725,0,0,0,,,,,
3117,1.51,-2.14,3.14,-0.0927,0.9681,0.0767,0,0,0,,,,,
3119,2.4,-1.93,4.99,-0.08,0.9676,0.0791,0,0,0,,,,,
3122,3.5,-2.91,4.15,-0.0748,0.9667,0.0772,0,0,0,,,,,
3124,4.16,-4.15,3.43,-0.0746,0.9675,0.0713,0,0,0,,,,,
3126,4.43,-3.7,3.74,-0.0729,0.9668,0.0694,0,0,0,,,,,
3128,3.62,-3.32,3.97,-0.0714,0.9674,0.0668,0,0,0,,,,,
3130,3.32,-3.07,4.12,-0.0696,0.9682,0.0659,0,0,0,,,,,
3132,2.96,-3.11,4.67,-0.0697,0.9684,0.0639,0,0,0,,,,,
3134,1.9,-3.17,5.7,-0.0652,0.9696,0.0625,0,0,0,,,,,
3136,0.9,-2,5.97,-0.0451,0.9732,0.0686,0,0,0,,,,,
3138,0.27,-3.73,10.01,-0.0435,0.9724,0.0696,0,0,0,,,,,
3140,0.79,-6.97,10.66,-0.0434,0.9719,0.0668,0,0,0,,,,,
3142,0.31,-7.21,9.32,-0.043,0.9729,0.0628,0,0,0,,,,,
3144,-0.23,-6.27,8.75,-0.0414,0.9731,0.0626,0,0,0,,,,,
3146,-0.71,-5.94,8.46,-0.0436,0.9688,0.0569,0,0,0,,,,,
3148,-0.68,-6.33,5.81,-0.0488,0.9702,0.0559,0,0,0,,,,,
3150,-1.06,-3.07,2.32,-0.0438,0.971,0.0578,0,0,0,,,,,
3152,-2.06,-0.44,2.6,-0.0376,0.9713,0.0621,0,0,0,,,,,
3155,-2.58,-0.39,3.85,-0.0308,0.9697,0.0656,0,0,0,,,,,
3157,-2.28,-0.41,4.12,-0.0288,0.9707,0.0674,0,0,0,,,,,
3159,-1.99,-0.24,4.41,-0.0279,0.9708,0.0684,0,0,0,,,,,
3161,-1.25,-0.13,4.73,-0.0244,0.9702,0.0701,0,0,0,,,,,
3163,-0.85,-0.33,4.42,-0.0199,0.9698,0.069,0,0,0,,,,,
3165,-0.41,-0.26,4.17,-0.018,0.9707,0.0697,0,0,0,,,,,
3167,0.18,-0.39,4.19,-0.0165,0.9702,0.0699,0,0,0,,,,,
3169,0.38,-0.5,4.25,-0.015,0.9702,0.0696,0,0,0,,,,,
3171,0.55,-0.34,4.14,-0.0125,0.9705,0.0693,0,0,0,,,,,
3173,0.64,-0.38,3.87,-0.0105,0.9699,0.0684,0,0,0,,,,,
3175,0.71,-0.25,3.67,-0.0077,0.9699,0.068,0,0,0,,,,,
3177,0.75,0.02,3.44,-0.0072,0.9707,0.0683,0,0,0,,,,,
3179,0.83,0.31,3.17,-0.0049,0.9704,0.0684,0,0,0,,,,,
3181,1.1,0.29,2.65,-0.0026,0.9707,0.0683,0,0,0,,,,,
3183,1.1,0.29,2.11,-0.0009,0.9702,0.0668,0,0,0,,,,,
3185,1,0.46,1.46,-0.0014,0.9712,0.0667,0,0,0,,,,,
3188,1.05,0.56,1.3,-0.0011,0.9705,0.0661,0,0,0,,,,,
3190,0.65,0.33,1.38,-0.0011,0.9706,0.0651,0,0,0,,,,,
3192,0.27,0.33,1.43,0.0008,0.9699,0.0648,0,0,0,,,,,
3194,-0.49,0.46,1.36,0.0009,0.9697,0.0643,0,0,0,,,,,
3196,-1.77,0.92,1.7,0.0042,0.9683,0.0677,0,0,0,,,,,
3198,-2.58,0.94,2.2,0.0044,0.9686,0.0692,0,0,0,,,,,
3200,-2.58,0.21,1.46,0.0049,0.9694,0.0694,0,0,0,,,,,
3202,-2.45,-0.28,0.24,0.0055,0.9685,0.0683,0,0,0,,,,,
3204,-2.68,-0.21,-0.33,0.0028,0.9691,0.0678,0,0,0,,,,,
3206,-3.12,0.22,-0.07,0.0017,0.9695,0.0695,0,0,0,,,,,
3208,-3.06,0.31,0.19,0.0011,0.9692,0.072,0,0,0,,,,,
3210,-1.67,-0.16,-0.02,-0.0019,0.9705,0.0729,0,0,0,,,,,
3212,-1.52,0.33,0.6,0.0012,0.9692,0.0717,0,0,0,,,,,
3214,-1.81,1.2,1.9,0.0025,0.9697,0.0753,0,0,0,,,,,
3216,-1.58,1.08,2.23,0.0042,0.9699,0.0771,0,0,0,,,,,
3219,-1.02,0.72,2.64,0.0055,0.9706,0.0771,0,0,0,,,,,
3222,-0.87,0.54,2.78,0.0066,0.97,0.0766,0,0,0,,,,,
3224,-0.7,0.37,2.76,0.0091,0.9702,0.0781,0,0,0,,,,,
3226,-0.2,0.13,2.16,0.0106,0.9699,0.0787,0,0,0,,,,,
3228,0.13,-0.4,1.83,0.0121,0.9696,0.0786,0,0,0,,,,,
3230,0.39,-0.66,1.49,0.0114,0.9697,0.0785,0,0,0,,,,,
3232,0.46,-0.62,1.32,0.0112,0.9699,0.0777,0,0,0,,,,,
3234,0.28,-0.51,1.17,0.0122,0.9694,0.0774,0,0,0,,,,,
3236,0.12,-0.34,1.15,0.0117,0.9697,0.0778,0,0,0,,,,,
3238,0.16,-0.46,1.44,0.0122,0.9695,0.0777,0,0,0,,,,,
3240,-0.04,-0.34,1.64,0.0136,0.9699,0.0772,0,0,0,,,,,
3242,-0.37,-0.07,1.46,0.0153,0.9689,0.0767,0,0,0,,,,,
3244,-0.79,0.04,1.5,0.0145,0.9695,0.0776,0,0,0,,,,,
3246,-1.03,0.47,1.42,0.0158,0.9694,0.0789,0,0,0,,,,,
3248,-1.32,0.7,1.05,0.0162,0.9698,0.0794,0,0,0,,,,,
3250,-1.48,0.88,0.97,0.0165,0.9697,0.0802,0,0,0,,,,,
3252,-1.37,1.05,0.99,0.0163,0.9702,0.0819,0,0,0,,,,,
3255,-0.68,0.67,0.63,0.0185,0.9696,0.0825,0,0,0,,,,,
3257,-0.19,0.28,0.48,0.0184,0.9699,0.0805,0,0,0,,,,,
3259,-0.19,0.29,0.64,0.0187,0.9693,0.081,0,0,0,,,,,
3261,-0.08,0.24,0.75,0.0182,0.9698,0.0816,0,0,0,,,,,
3263,0.34,0.09,1.33,0.0184,0.9691,0.0815,0,0,0,,,,,
3265,0.1,-0.06,2.61,0.0157,0.9709,0.0793,0,0,0,,,,,
3267,-0.32,0.14,4.03,0.0158,0.9713,0.0791,0,0,0,,,,,
3269,-1.2,1.09,6.3,0.0184,0.9701,0.0798,0,0,0,,,,,
3271,-1.93,1.84,8.74,0.0214,0.973,0.0809,0,0,0,,,,,
3273,-2.16,1.38,12.72,0.0256,0.9724,0.0798,0,0,0,,,,,
3275,-3.31,0.81,15.63,0.0371,0.9694,0.0826,0,0,0,,,,,
3277,-4.15,0.74,16.75,0.0468,0.9681,0.0878,0,0,0,,,,,
3279,-4.36,-0.37,17.35,0.051,0.9688,0.0885,0,0,0,,,,,
3281,-5.42,-3.59,20.41,0.0632,0.9687,0.0859,0,0,0,,,,,
3283,-9.74,-10.65,25.24,0.0788,0.9625,0.0861,0,0,0,,,,,
3285,-15.11,-23.42,32.74,0.0918,0.9635,0.0915,0,0,0,,,,,
3288,-18.09,-35.62,41.29,0.1021,0.9618,0.0968,0,0,0,,,,,
3290,-20.23,-55.8,59.45,0.1238,0.955,0.1083,0,0,0,,,,,
3292,-19.19,-71.96,75.93,0.1566,0.9455,0.1167,0,0,0,,,,,
3294,-15.45,-77.82,87.16,0.2008,0.9365,0.1213,0,0,0,,,,,
3296,-11.84,-74.39,92.59,0.2372,0.9256,0.1214,0,0,0,,,,,
3298,-5.87,-61.84,99.43,0.2971,0.9068,0.1126,0,0,0,,,,,
3300,1.99,-47.73,93.15,0.353,0.8955,0.1031,0,0,0,,,,,
3302,6.84,-36.48,83.92,0.4087,0.8798,0.0907,0,0,0,,,,,
3304,9.51,-32.52,82.42,0.4367,0.8713,0.0842,0,0,0,,,,,
3306,13.66,-32.21,89.31,0.4895,0.8538,0.0749,0,0,0,,,,,
3308,16.86,-33.39,103.39,0.5346,0.828,0.0634,0,0,0,,,,,
3310,18.16,-28.96,114.13,0.5848,0.7823,0.0464,0,0,0,,,,,
3312,16.67,-20.33,127.62,0.6419,0.7301,0.0374,0,0,0,,,,,
3314,16.3,-12.27,140.9,0.6926,0.6762,0.0286,0,0,0,,,,,
3316,17.11,-7.05,148.82,0.7176,0.6401,0.0217,0,0,0,,,,,
3318,19.11,-1.06,153.74,0.7517,0.5786,0.0124,0,0,0,,,,,
3321,20.58,2.65,156.45,0.7947,0.5201,0.0029,0,0,0,,,,,
3323,23.12,5.39,161.34,0.8252,0.4659,-0.0049,0,0,0,,,,,
3325,25.71,8.04,165.59,0.8583,0.3997,-0.0105,0,0,0,,,,,
3327,27.27,9.66,162.93,0.8865,0.3581,-0.0121,0,0,0,,,,,
3329,27.64,11.54,148.51,0.934,0.2797,-0.0175,0,0,0,,,,,
3331,24.58,11.41,123.84,0.9766,0.2055,-0.0207,0,0,0,,,,,
3333,18.29,8.48,97.7,0.997,0.1386,-0.0272,0,0,0,,,,,
3335,14.08,7.52,80.62,1.0058,0.115,-0.0298,0,0,0,,,,,
3337,10.58,8.22,64.79,1.0099,0.0935,-0.034,0,0,0,,,,,
3339,6.51,10.39,51.33,1.0139,0.0624,-0.0321,0,0,0,,,,,
3341,2.74,13.7,42.55,1.002,0.0507,-0.025,0,0,0,,,,,
3343,-0.07,16.38,35.46,0.9863,0.0372,-0.0103,0,0,0,,,,,
3345,-1.02,15.77,32.52,0.9805,0.029,0.0044,0,0,0,,,,,
3347,-0.79,13.04,28.43,0.9856,0.0134,0.02,0,0,0,,,,,
3349,-2.2,10.51,21.27,0.993,-0.0112,0.0307,0,0,0,,,,,
3353,-2.53,5.15,12.21,0.9958,-0.0139,0.0398,0,0,0,,,,,
3356,-1.67,-0.64,0.53,0.9975,-0.0153,0.0456,0,0,0,,,,,
3358,1.34,-2.69,0.15,0.9991,-0.0141,0.0431,0,0,0,,,,,
3360,6.48,-0.72,0.09,1.0008,-0.0118,0.0345,0,0,0,,,,,
3362,9.71,-0.8,-0.07,0.9993,-0.0103,0.0442,0,0,0,,,,,
3364,10.34,-1.28,-0.2,1.0002,-0.0101,0.0415,0,0,0,,,,,
3366,8.38,-1.66,-0.27,1.0008,-0.0106,0.0345,0,0,0,,,,,
3368,5.22,-0.75,-0.15,1.0006,-0.0116,0.0305,0,0,0,,,,,
3370,1.58,0.08,-0.13,0.9999,-0.013,0.036,0,0,0,,,,,
3372,-1.51,-0.43,-0.1,0.9999,-0.0154,0.0331,0,0,0,,,,,
3374,-1.7,-0.19,-0.09,0.9997,-0.0161,0.0331,0,0,0,,,,,
3376,-1.65,-0.18,-0.09,0.9999,-0.0164,0.0322,0,0,0,,,,,
3378,-2.94,0.02,-0.12,0.9991,-0.0149,0.0209,0,0,0,,,,,
3380,-6.65,0.57,-0.21,0.999,-0.0154,0.0313,0,0,0,,,,,
3382,-6.86,0.24,-0.15,0.9986,-0.0157,0.0317,0,0,0,,,,,
3384,-6.87,0.09,-0.12,0.9985,-0.0156,0.0327,0,0,0,,,,,
3386,-6.88,-0.3,-0.08,0.9987,-0.0161,0.0297,0,0,0,,,,,
3389,-6.38,-0.12,-0.06,0.999,-0.0169,0.0363,0,0,0,,,,,
3391,-0.69,-0.43,0.01,0.9985,-0.0166,0.0359,0,0,0,,,,,
3393,0.03,-0.18,0.03,0.9993,-0.0162,0.0295,0,0,0,,,,,
3395,0.04,0.23,0,0.9993,-0.0161,0.0304,0,0,0,,,,,
3397,0.05,0.34,-0.11,0.9992,-0.0161,0.0309,0,0,0,,,,,
3399,0.05,0.39,-0.09,0.9992,-0.0155,0.0313,0,0,0,,,,,
3401,0.04,0.22,-0.1,0.9991,-0.0154,0.0313,0,0,0,,,,,
3403,0.04,0.12,-0.09,0.999,-0.0154,0.0316,0,0,0,,,,,
3405,0.05,-0.02,-0.08,0.9988,-0.0154,0.0319,0,0,0,,,,,
3407,0.04,-0.01,-0.02,0.9989,-0.0157,0.0307,0,0,0,,,,,
3409,0.04,-0.24,0.03,0.9987,-0.0158,0.0321,0,0,0,,,,,
3411,0.03,-0.44,0.07,0.9989,-0.016,0.0305,0,0,0,,,,,
3413,0.03,-0.39,0.09,0.9988,-0.0162,0.0299,0,0,0,,,,,
3415,0.02,-0.17,0.09,0.9987,-0.0162,0.0295,0,0,0,,,,,
3417,0.01,0.08,0.08,0.9988,-0.0163,0.0294,0,0,0,,,,,
3419,-0.89,0.2,0.06,0.9992,-0.0154,0.0253,0,0,0,,,,,
3422,-1.95,0.59,-0.01,0.9993,-0.0168,0.0293,0,0,0,,,,,
3424,-2.06,0.53,-0.08,0.9991,-0.017,0.0314,0,0,0,,,,,
3426,-2.06,0.52,-0.17,0.9997,-0.0171,0.0325,0,0,0,,,,,
3428,-2.03,-0.14,-0.24,0.9998,-0.0164,0.0332,0,0,0,,,,,
3430,-2,-0.57,-0.18,0.9997,-0.0166,0.0336,0,0,0,,,,,
3432,-0.04,-0.95,-0.14,0.9995,-0.0162,0.0328,0,0,0,,,,,
3434,0.07,-0.81,-0.12,1,-0.016,0.0304,0,0,0,,,,,
3436,0.1,-0.76,-0.07,0.9997,-0.0156,0.0312,0,0,0,,,,,
3438,0.11,-0.54,0.01,0.9995,-0.0153,0.0294,0,0,0,,,,,
3440,0.11,-0.41,-0.01,0.9992,-0.0158,0.0291,0,0,0,,,,,
3442,0.1,-0.24,-0.02,0.9993,-0.0155,0.0282,0,0,0,,,,,
3444,0.09,-0.01,-0.01,0.9994,-0.0157,0.0292,0,0,0,,,,,
3446,0.07,-0.02,-0.01,0.9992,-0.0157,0.0299,0,0,0,,,,,
3448,0.06,-0.06,-0.01,0.9993,-0.0159,0.0301,0,0,0,,,,,
3450,0.05,-0.07,0,0.9994,-0.0161,0.0303,0,0,0,,,,,
3452,0.05,-0.02,0,0.9993,-0.0163,0.0304,0,0,0,,,,,
3455,0.05,0.01,0,0.9993,-0.016,0.0304,0,0,0,,,,,
3457,0.04,0.02,0,0.9995,-0.016,0.03,0,0,0,,,,,
3459,0.03,0.09,0.01,0.9995,-0.0161,0.0296,0,0,0,,,,,
3461,0.02,0.25,0.04,0.9997,-0.0158,0.0296,0,0,0,,,,,
3463,0.02,0.24,0.06,0.9997,-0.0156,0.0301,0,0,0,,,,,
3465,0.03,0.09,0.03,0.9996,-0.0152,0.0301,0,0,0,,,,,
3467,0.04,-0.02,0.04,0.9995,-0.0153,0.0298,0,0,0,,,,,
3469,0.06,-0.06,0.05,0.9993,-0.0152,0.03,0,0,0,,,,,
3471,0.07,-0.19,0.02,0.9995,-0.0149,0.0301,0,0,0,,,,,
3473,0.07,-0.25,0,0.9994,-0.0148,0.0292,0,0,0,,,,,
3475,0.07,-0.13,0.04,0.9993,-0.0147,0.0286,0,0,0,,,,,
3477,0.06,0.04,0.01,0.9995,-0.0147,0.0287,0,0,0,,,,,
3479,0.06,0.06,0,0.9996,-0.0149,0.029,0,0,0,,,,,
3481,0.05,0.03,0,0.9995,-0.0151,0.0293,0,0,0,,,,,
3483,0.04,0.03,0.01,0.9996,-0.0155,0.0296,0,0,0,,,,,
3486,0.04,0.07,0.01,0.9995,-0.0153,0.0298,0,0,0,,,,,
3489,0.04,0.05,0.07,0.9998,-0.0155,0.0301,0,0,0,,,,,
3491,0.04,0.11,0.04,0.9997,-0.0153,0.0304,0,0,0,,,,,
3493,0.03,0.19,0.04,0.9996,-0.0152,0.0304,0,0,0,,,,,
3495,0.14,0.9,0.17,0.9996,-0.0157,0.0284,0,0,0,,,,,
3497,3.1,1.1,0.31,0.9992,-0.0169,0.0295,0,0,0,,,,,
3499,4.02,1.24,0.33,0.9994,-0.0154,0.0306,0,0,0,,,,,
3501,3.6,2.18,0.35,1,-0.0135,0.0297,0,0,0,,,,,
3503,0.48,6.14,0.47,1.0037,-0.0138,0.0216,0,0,0,,,,,
3505,-1.81,14.31,0.58,1.0062,-0.0137,0.0199,0,0,0,,,,,
3507,-6.57,24.68,0.29,1.0062,-0.0142,0.0295,0,0,0,,,,,
3509,-9.02,31.47,0.09,1.004,-0.0167,0.0404,0,0,0,,,,,
3511,-9.5,38.7,-0.11,0.9997,-0.0186,0.0647,0,0,0,,,,,
3513,-6.81,41.46,-0.13,0.9927,-0.0211,0.0977,0,0,0,,,,,
3515,-3.02,37.29,-0.12,0.9844,-0.0228,0.1343,0,0,0,,,,,
3517,3.92,26.56,0.62,0.9796,-0.0225,0.1587,0,0,0,,,,,
3519,10.12,14.18,1.45,0.9796,-0.0205,0.1691,0,0,0,,,,,
3522,11.5,8.24,1.68,0.9828,-0.0182,0.1652,0,0,0,,,,,
3524,11.63,4.14,1.69,0.9867,-0.0184,0.1575,0,0,0,,,,,
3526,10.51,4.43,1.74,0.9915,-0.0147,0.1505,0,0,0,,,,,
3528,8.02,7.94,2.09,0.995,-0.0127,0.1464,0,0,0,,,,,
3530,3.7,16.37,3.03,0.9988,-0.0135,0.1456,0,0,0,,,,,
3532,-0.94,26.27,3.12,0.9951,-0.0188,0.1577,0,0,0,,,,,
3534,-2.43,32.97,2.15,0.9904,-0.0229,0.1778,0,0,0,,,,,
3536,-2.71,38.41,1.8,0.9863,-0.0243,0.1973,0,0,0,,,,,
3538,-2.67,41.38,1.57,0.9816,-0.0257,0.2128,0,0,0,,,,,
3540,-4.95,45.46,-0.58,0.975,-0.028,0.2332,0,0,0,,,,,
3542,-7.48,51.01,-3.04,0.9704,-0.0266,0.2538,0,0,0,,,,,
3544,-9.46,58.55,-5.86,0.9602,-0.0248,0.2876,0,0,0,,,,,
3546,-11.09,71.57,-7.44,0.9472,-0.023,0.3296,0,0,0,,,,,
3548,-12.77,82.94,-5.99,0.9335,-0.0104,0.3574,0,0,0,,,,,
3550,-13.04,97.53,-3.19,0.9067,0.0049,0.4059,0,0,0,,,,,
3552,-13.08,108.47,-2,0.8759,0.0053,0.46,0,0,0,,,,,
3555,-11.92,115.97,-1.71,0.8441,0.001,0.5126,0,0,0,,,,,
3557,-10.47,119.27,0.95,0.8237,-0.0024,0.5366,0,0,0,,,,,
3559,-9.52,117.07,2.54,0.7836,-0.0199,0.5874,0,0,0,,,,,
3561,-7.38,115.17,0.42,0.7417,-0.0469,0.6396,0,0,0,,,,,
3563,-5.12,116.94,-4.84,0.7038,-0.0629,0.6856,0,0,0,,,,,
3565,-2.45,116.77,-7.19,0.6855,-0.0725,0.7191,0,0,0,,,,,
3567,-1.02,115.93,-4.71,0.6488,-0.0734,0.7639,0,0,0,,,,,
3569,-1.99,112.8,-2.03,0.6121,-0.0742,0.8009,0,0,0,,,,,
3571,-3.41,108.39,-1.1,0.5684,-0.0654,0.8316,0,0,0,,,,,
3573,-4.21,103.94,1.44,0.5174,-0.0614,0.8522,0,0,0,,,,,
3575,-4.82,103.1,5.48,0.4794,-0.0546,0.8672,0,0,0,,,,,
3577,-7.14,100.46,9.07,0.444,-0.0576,0.8897,0,0,0,,,,,
3579,-7.21,95.34,9.29,0.4026,-0.0527,0.9187,0,0,0,,,,,
3581,-2.48,91.08,11.78,0.3491,-0.0467,0.9384,0,0,0,,,,,
3583,0.55,88.54,14.6,0.3237,-0.0516,0.9532,0,0,0,,,,,
3585,1.01,81.9,18.71,0.292,-0.0698,0.9728,0,0,0,,,,,
3588,-0.39,73.95,21.82,0.2511,-0.0717,0.9856,0,0,0,,,,,
3590,-0.1,70.52,25.28,0.1983,-0.0662,0.9844,0,0,0,,,,,
3592,0.24,69.61,30.27,0.1624,-0.0743,0.9806,0,0,0,,,,,
3594,-0.18,69.03,36.33,0.1373,-0.069,0.9784,0,0,0,,,,,
3596,0.67,66.17,37.09,0.1191,-0.0508,0.9796,0,0,0,,,,,
3598,3.61,55.78,34.59,0.0918,-0.0298,0.9795,0,0,0,,,,,
3600,7.65,43.03,30.18,0.0695,-0.0374,0.9866,0,0,0,,,,,
3602,8.09,34.27,27.96,0.0546,-0.0413,0.9999,0,0,0,,,,,
3604,5.08,20.62,21.22,0.0286,-0.0429,1.0087,0,0,0,,,,,
3606,1.14,7.45,11.43,0.0075,-0.0521,1.0166,0,0,0,,,,,
3608,-1.37,1.07,8.86,-0.0048,-0.0652,1.0224,0,0,0,,,,,
3610,-2.91,1.31,9.87,-0.0132,-0.0715,1.0211,0,0,0,,,,,
3612,-3.9,2.43,10.21,-0.0152,-0.0729,1.0171,0,0,0,,,,,
3614,-4.02,3.37,7.1,-0.0091,-0.0726,1.0104,0,0,0,,,,,
3616,-3.42,1.92,4.5,-0.0016,-0.0736,1.0074,0,0,0,,,,,
3620,-0.96,3.58,7.26,-0.0099,-0.0771,1.0036,0,0,0,,,,,
3623,0.28,5.9,8.89,-0.0145,-0.0766,1.0005,0,0,0,,,,,
3625,0.49,6.06,6.14,-0.0108,-0.0699,0.9948,0,0,0,,,,,
3627,0.57,3.31,2.04,-0.0102,-0.069,0.9997,0,0,0,,,,,
3629,1.83,4.57,4.73,-0.016,-0.0717,1.0045,0,0,0,,,,,
3631,1.01,4,4.71,-0.0074,-0.073,1.0062,0,0,0,,,,,
3633,-0.66,0.43,1.53,-0.0005,-0.0731,1.0088,0,0,0,,,,,
3635,-2.01,-3.56,-0.08,-0.0068,-0.0715,1.0127,0,0,0,,,,,
3637,-1.19,-1.74,2.32,-0.0214,-0.0671,1.005,0,0,0,,,,,
3639,-0.56,-1.57,0.19,-0.007,-0.0674,0.9997,0,0,0,,,,,
3641,-0.24,-4.85,-2.82,0.0035,-0.0706,1.003,0,0,0,,,,,
3643,1.84,-3.92,-0.5,-0.0114,-0.0708,1.0051,0,0,0,,,,,
3645,2.12,-2.75,-0.39,-0.008,-0.0731,1.0056,0,0,0,,,,,
3647,1.19,-3.85,-2.27,0.0073,-0.0774,1.0097,0,0,0,,,,,
3649,-1.05,-8.87,-4.21,0.0184,-0.0805,1.0175,0,0,0,,,,,
3651,-1.57,-10.24,-2.31,0.0103,-0.0786,1.0191,0,0,0,,,,,
3653,-1.92,-8.62,0.57,0.0027,-0.0715,1.0111,0,0,0,,,,,
3656,-3.35,-10.36,-1.98,0.0235,-0.0712,1.0048,0,0,0,,,,,
3658,-5.32,-14.28,-3.63,0.0352,-0.0703,1.005,0,0,0,,,,,
3660,-6.2,-17.5,-3.14,0.0319,-0.0687,1.007,0,0,0,,,,,
3662,-5.4,-16.96,-0.74,0.0222,-0.0683,1.0063,0,0,0,,,,,
3664,-4.55,-14.07,0.69,0.0222,-0.0715,1.0037,0,0,0,,,,,
3666,-4.76,-13.26,-1.32,0.0454,-0.0841,1.0045,0,0,0,,,,,
3668,-5.7,-15.32,-1.24,0.0544,-0.0902,1.0114,0,0,0,,,,,
3670,-3.3,-12.21,3.12,0.0421,-0.0945,1.0144,0,0,0,,,,,
3672,-1.41,-6.72,5.56,0.0506,-0.098,1.0077,0,0,0,,,,,
3674,-2.71,-10.96,2.49,0.083,-0.1005,1.0042,0,0,0,,,,,
3676,-5.47,-26.81,0.02,0.0987,-0.0856,1.0124,0,0,0,,,,,
3678,-6.05,-38.79,-1.12,0.1193,-0.0874,1.0183,0,0,0,,,,,
3680,-9.84,-56.08,-6.96,0.1821,-0.0995,1.0197,0,0,0,,,,,
3682,-16.91,-83.13,-12.36,0.2123,-0.1072,1.0246,0,0,0,,,,,
3684,-16.95,-105.77,-10.09,0.2233,-0.1125,1.0141,0,0,0,,,,,
3686,-15.86,-115.99,-7.19,0.2425,-0.1271,0.9889,0,0,0,,,,,
3689,-15.27,-122.51,-8.87,0.2929,-0.1399,0.9451,0,0,0,,,,,
3691,-14.09,-127.96,-9.89,0.3242,-0.1372,0.923,0,0,0,,,,,
3693,-7.33,-131.09,-8.12,0.3641,-0.1346,0.8948,0,0,0,,,,,
3695,-7.17,-126.71,-8.63,0.417,-0.1396,0.8679,0,0,0,,,,,
3697,-11.55,-124.54,-15.25,0.5052,-0.1571,0.8212,0,0,0,,,,,
3699,-11.88,-128.91,-17.38,0.5701,-0.15,0.7958,0,0,0,,,,,
3701,-12.47,-129.36,-15.44,0.5914,-0.1426,0.7785,0,0,0,,,,,
3703,-15.08,-125.09,-12.3,0.6413,-0.1395,0.722,0,0,0,,,,,
3705,-19.31,-124.73,-13.75,0.7111,-0.1376,0.6581,0,0,0,,,,,
3707,-17.3,-129.13,-15.14,0.7462,-0.1221,0.6256,0,0,0,,,,,
3709,-14.44,-128.53,-14.06,0.7685,-0.1162,0.5978,0,0,0,,,,,
3711,-12.38,-124.67,-14.75,0.8198,-0.1195,0.5305,0,0,0,,,,,
3713,-11.73,-124.08,-18.78,0.8579,-0.1254,0.4764,0,0,0,,,,,
3715,-3.7,-117.82,-25.66,0.8836,-0.1256,0.4238,0,0,0,,,,,
3717,4.15,-111.48,-28.07,0.9035,-0.1227,0.3892,0,0,0,,,,,
3719,11.32,-103.5,-31.56,0.9335,-0.1097,0.3195,0,0,0,,,,,
3722,10.31,-97.68,-37.46,0.9727,-0.0795,0.2584,0,0,0,,,,,
3724,11.3,-87.72,-34.7,0.9913,-0.0503,0.2083,0,0,0,,,,,
3726,15.34,-80.29,-29.88,0.9954,-0.038,0.1787,0,0,0,,,,,
3728,23.08,-70.23,-19.24,1.0064,-0.0175,0.1352,0,0,0,,,,,
3730,24.37,-59,-10.84,1.0156,0.0037,0.0956,0,0,0,,,,,
3732,23.48,-46.15,-1.72,1.0142,0.0029,0.0707,0,0,0,,,,,
3734,25.21,-36.12,1.53,1.0014,-0.0139,0.0656,0,0,0,,,,,
3736,23.3,-31.71,1.19,1.0016,-0.0143,0.0543,0,0,0,,,,,
3738,15.28,-23.4,0.2,1.0046,-0.0117,0.0367,0,0,0,,,,,
3740,9.4,-15.22,-0.24,1.0035,-0.0226,0.0334,0,0,0,,,,,
3742,8.2,-9.16,-0.29,1.002,-0.0225,0.0327,0,0,0,,,,,
3744,8.65,-5.43,-0.15,1.0007,-0.0143,0.0292,0,0,0,,,,,
3746,8.33,-2.03,0,1.0009,-0.0124,0.0275,0,0,0,,,,,
3748,6.8,-0.78,0.03,0.999,-0.0128,0.0324,0,0,0,,,,,
3750,3.58,-0.67,-0.09,0.9991,-0.0104,0.0327,0,0,0,,,,,
3753,0.24,0,0.01,0.9994,-0.0135,0.0332,0,0,0,,,,,
3756,0.03,-0.41,-0.01,0.9992,-0.0144,0.0316,0,0,0,,,,,
3758,0.01,0,-0.05,0.9992,-0.0143,0.0306,0,0,0,,,,,
3760,0.01,-0.13,-0.04,0.999,-0.0145,0.0309,0,0,0,,,,,
3762,0.02,0.07,-0.02,0.9989,-0.0144,0.0319,0,0,0,,,,,
3764,0.02,-0.16,0,0.9988,-0.0148,0.0311,0,0,0,,,,,
3766,0.03,-0.1,0,0.9989,-0.0145,0.0309,0,0,0,,,,,
3768,0.04,-0.11,0.02,0.9992,-0.0143,0.0312,0,0,0,,,,,
3770,0.05,0.02,0.02,0.9997,-0.0141,0.0302,0,0,0,,,,,
3772,0.05,-0.01,0.02,0.9996,-0.0141,0.0309,0,0,0,,,,,
3774,0.05,0.01,0.02,0.9994,-0.0138,0.0309,0,0,0,,,,,
3776,0.05,0,0.03,0.9995,-0.0137,0.0311,0,0,0,,,,,
3778,0.05,0,0.03,0.9992,-0.0137,0.0309,0,0,0,,,,,
3780,0.05,0,0.04,0.9991,-0.0139,0.0315,0,0,0,,,,,
3782,0.04,0.01,0.03,0.9989,-0.0141,0.0319,0,0,0,,,,,
3784,0.05,0,0.02,0.9988,-0.0143,0.0314,0,0,0,,,,,
3786,0.06,0,0.02,0.9987,-0.0145,0.031,0,0,0,,,,,
3789,0.05,0,0.01,0.9983,-0.0148,0.031,0,0,0,,,,,
3791,0.04,0.01,0,0.9987,-0.0149,0.031,0,0,0,,,,,
3793,0.04,0,0,0.9989,-0.0147,0.0308,0,0,0,,,,,
3795,0.05,0,0,0.9991,-0.0146,0.0309,0,0,0,,,,,
3797,0.05,0.01,-0.01,0.9993,-0.0145,0.0311,0,0,0,,,,,
3799,0.05,0,-0.02,0.9992,-0.0144,0.031,0,0,0,,,,,
3801,0.05,-0.01,-0.03,0.9987,-0.0145,0.0305,0,0,0,,,,,
3803,0.07,-0.04,-0.04,0.9986,-0.0145,0.0305,0,0,0,,,,,
3805,0.05,-0.05,-0.05,0.9987,-0.0143,0.0299,0,0,0,,,,,
3807,0.05,-0.04,-0.04,0.9993,-0.0143,0.0296,0,0,0,,,,,
3809,0.04,-0.04,-0.03,0.9997,-0.0142,0.03,0,0,0,,,,,
3811,0.04,-0.02,-0.02,1.0001,-0.014,0.03,0,0,0,,,,,
3813,0.03,0,0,1.0006,-0.014,0.0307,0,0,0,,,,,
3815,0.04,0.02,0.01,1.0002,-0.014,0.031,0,0,0,,,,,
3817,0.03,0.01,-0.01,1,-0.0138,0.0314,0,0,0,,,,,
3819,0.03,0.01,-0.02,1.0001,-0.0137,0.0312,0,0,0,,,,,
3822,0.04,0,-0.03,1.0003,-0.0137,0.0311,0,0,0,,,,,
3824,0.04,0.01,-0.04,1.0003,-0.0137,0.0307,0,0,0,,,,,
3826,0.03,0.01,-0.03,1.0003,-0.0135,0.0307,0,0,0,,,,,
3828,0.04,0.02,-0.01,1.0005,-0.0139,0.0309,0,0,0,,,,,
3830,0.04,0.03,0,1.0004,-0.0143,0.0306,0,0,0,,,,,
3832,0.04,0.02,-0.01,0.9999,-0.0143,0.0309,0,0,0,,,,,
3834,0.03,0.01,0,0.9997,-0.0148,0.0308,0,0,0,,,,,
3836,0.04,0.02,0.01,0.9997,-0.0146,0.0308,0,0,0,,,,,
3838,0.05,0.01,0,0.9996,-0.0145,0.0307,0,0,0,,,,,
3840,0.04,0,0,0.9991,-0.0139,0.0307,0,0,0,,,,,
3842,0.04,0.01,0,0.9991,-0.014,0.0306,0,0,0,,,,,
3844,0.04,0.01,-0.01,0.9991,-0.0134,0.0311,0,0,0,,,,,
3846,0.04,0.01,0,0.9991,-0.0135,0.0311,0,0,0,,,,,
3848,0.04,0.02,0,0.999,-0.0132,0.0312,0,0,0,,,,,
3850,0.05,0.02,-0.01,0.9992,-0.0131,0.0312,0,0,0,,,,,
3852,0.05,0.01,0,0.9992,-0.0129,0.0313,0,0,0,,,,,
3855,0.04,0.01,0.01,0.9991,-0.0131,0.031,0,0,0,,,,,
3857,0.04,0.01,0.01,0.9993,-0.0134,0.0313,0,0,0,,,,,
3859,0.03,0.02,0.03,0.9994,-0.014,0.0314,0,0,0,,,,,
3861,0.03,0.02,0.04,0.9994,-0.0142,0.0312,0,0,0,,,,,
3863,0.02,0.03,0.05,0.9997,-0.0144,0.0308,0,0,0,,,,,
3865,0.03,0.03,0.03,0.9996,-0.0142,0.0308,0,0,0,,,,,
3867,0.03,0.02,0.01,0.9995,-0.0141,0.03,0,0,0,,,,,
3869,0.05,0.02,0,0.9996,-0.0137,0.0299,0,0,0,,,,,
3871,0.05,0.01,-0.01,0.9998,-0.0136,0.0302,0,0,0,,,,,
3873,0.05,0,-0.02,0.9995,-0.0137,0.031,0,0,0,,,,,
3875,0.05,0,-0.02,0.9996,-0.0136,0.0308,0,0,0,,,,,
3877,0.05,0.01,-0.01,0.9997,-0.0137,0.031,0,0,0,,,,,
3879,0.04,0,0,0.9998,-0.0137,0.0312,0,0,0,,,,,
3881,0.04,0.01,0,0.9995,-0.0137,0.0311,0,0,0,,,,,
3883,0.05,0.02,0.01,0.9996,-0.0137,0.031,0,0,0,,,,,
3887,0.05,0.03,0.02,0.9996,-0.014,0.0305,0,0,0,,,,,
3890,0.04,0.03,0.02,0.9997,-0.0139,0.0306,0,0,0,,,,,
3892,0.04,0.03,0.01,0.9995,-0.0139,0.0304,0,0,0,,,,,
3894,0.04,0.02,0,0.9997,-0.0139,0.0305,0,0,0,,,,,
3896,0.04,0.02,0,0.9998,-0.0138,0.0304,0,0,0,,,,,
3898,0.04,0.02,0,0.9997,-0.0137,0.0306,0,0,0,,,,,
3900,0.05,0.01,0,0.9994,-0.0141,0.0305,0,0,0,,,,,
3902,0.07,0.01,0.01,0.9992,-0.014,0.0305,0,0,0,,,,,
3904,0.06,0.01,0.02,0.9991,-0.0139,0.0307,0,0,0,,,,,
3906,0.06,0.03,0.02,0.9989,-0.0136,0.0309,0,0,0,,,,,
3908,0.05,0.04,0.02,0.9988,-0.0138,0.0308,0,0,0,,,,,
3910,0.05,0.04,0.01,0.9989,-0.0137,0.0307,0,0,0,,,,,
3912,0.04,0.04,0,0.9992,-0.0137,0.0308,0,0,0,,,,,
3914,0.06,0.04,-0.02,0.9991,-0.0138,0.0306,0,0,0,,,,,
3916,0.05,0.03,-0.01,0.9992,-0.0137,0.0307,0,0,0,,,,,
3918,0.05,0.02,-0.02,0.9993,-0.0137,0.0308,0,0,0,,,,,
3920,0.05,0.02,-0.01,0.9993,-0.0136,0.0308,0,0,0,,,,,
3923,0.04,0.02,0,0.9992,-0.0137,0.0305,0,0,0,,,,,
3925,0.04,0.02,0.01,0.9995,-0.0135,0.0305,0,0,0,,,,,
3927,0.04,0.02,0.02,0.9995,-0.0139,0.0302,0,0,0,,,,,
3929,0.04,0.02,0.03,0.9998,-0.0144,0.0301,0,0,0,,,,,
3931,0.04,0.02,0.03,0.9999,-0.0144,0.0305,0,0,0,,,,,
3933,0.04,0.01,0.03,1,-0.0142,0.0303,0,0,0,,,,,
3935,0.04,0.01,0.02,1.0002,-0.014,0.0305,0,0,0,,,,,
3937,0.04,0.02,0.02,1.0001,-0.0136,0.0309,0,0,0,,,,,
3939,0.04,0.02,0.01,0.9997,-0.0134,0.0311,0,0,0,,,,,
3941,0.04,0.01,0,0.9994,-0.0129,0.0306,0,0,0,,,,,
3943,0.05,0,0,0.9991,-0.0128,0.0304,0,0,0,,,,,
3945,0.06,0.01,0,0.9988,-0.0128,0.0302,0,0,0,,,,,
3947,0.07,0.01,-0.01,0.9989,-0.013,0.0302,0,0,0,,,,,
3949,0.07,0.01,0,0.9988,-0.0131,0.0299,0,0,0,,,,,
3951,0.07,0.02,0,0.9988,-0.0133,0.0297,0,0,0,,,,,
3953,0.06,0.02,0,0.9988,-0.0136,0.0302,0,0,0,,,,,
3956,0.07,0.01,0,0.9988,-0.0137,0.0308,0,0,0,,,,,
3958,0.06,0.02,0.01,0.9984,-0.014,0.0306,0,0,0,,,,,
3960,0.05,0.02,0.01,0.9985,-0.0143,0.0305,0,0,0,,,,,
3962,0.04,0.02,0.01,0.9985,-0.0142,0.0306,0,0,0,,,,,
3964,0.03,0.01,0.02,0.9985,-0.0143,0.0306,0,0,0,,,,,
3966,0.03,0.02,0.02,0.9986,-0.0141,0.0299,0,0,0,,,,,
3968,0.03,0.01,0.01,0.999,-0.0141,0.0297,0,0,0,,,,,
3970,0.04,0,0,0.999,-0.0139,0.0299,0,0,0,,,,,
3972,0.04,0,0,0.9992,-0.0139,0.0298,0,0,0,,,,,
3974,0.04,0,0,0.9995,-0.0141,0.0296,0,0,0,,,,,
3976,0.03,0,0,0.9995,-0.0139,0.0295,0,0,0,,,,,
3978,0.04,0,0,0.9996,-0.014,0.0295,0,0,0,,,,,
3980,0.04,0,0,0.9999,-0.0141,0.0297,0,0,0,,,,,
3982,0.04,0,0.01,0.9997,-0.0141,0.0299,0,0,0,,,,,
3984,0.04,-0.01,0.02,0.9995,-0.0142,0.0299,0,0,0,,,,,
3986,0.03,0,0.02,0.9995,-0.0142,0.0298,0,0,0,,,,,
3989,0.05,0.01,0.02,0.9994,-0.0143,0.0298,0,0,0,,,,,
3991,0.04,0.02,0.02,0.9994,-0.0144,0.0295,0,0,0,,,,,
3993,0.03,0.02,0.02,0.9993,-0.0142,0.0295,0,0,0,,,,,
3995,0.03,0.03,0.01,0.9995,-0.0141,0.0297,0,0,0,,,,,
3997,0.04,0.04,0.01,0.9996,-0.014,0.0298,0,0,0,,,,,
3999,0.04,0.03,0.02,0.9996,-0.0136,0.0302,0,0,0,,,,,
4001,0.05,0.02,0.02,0.9998,-0.0137,0.0307,0,0,0,,,,,
4003,0.05,0.02,0.02,0.9998,-0.0138,0.0309,0,0,0,,,,,
4005,0.05,0.02,0.01,0.9997,-0.0138,0.0306,0,0,0,,,,,
4007,0.04,0.01,0.01,0.9999,-0.0134,0.0309,0,0,0,,,,,
4009,0.04,0.01,0,0.9997,-0.0136,0.0307,0,0,0,,,,,
4011,0.02,0.02,-0.01,0.9995,-0.0138,0.0302,0,0,0,,,,,
4013,0.02,0.04,-0.01,0.9992,-0.0139,0.0304,0,0,0,,,,,
4015,0.02,0.05,0,0.9992,-0.0139,0.0302,0,0,0,,,,,
4017,0.03,0.05,-0.01,0.9991,-0.0141,0.0302,0,0,0,,,,,
4020,0.03,0.04,-0.02,0.9991,-0.0141,0.03,0,0,0,,,,,
4023,0.03,0.05,-0.02,0.9991,-0.0139,0.0299,0,0,0,,,,,
4025,0.03,0.04,-0.01,0.9992,-0.0138,0.0301,0,0,0,,,,,
4027,0.04,0.04,-0.01,0.9992,-0.0137,0.0302,0,0,0,,,,,
4029,0.04,0.04,-0.01,0.9991,-0.0137,0.0304,0,0,0,,,,,
4031,0.04,0.03,0,0.9992,-0.0137,0.0304,0,0,0,,,,,
4033,0.04,0.02,0,0.9995,-0.0137,0.0303,0,0,0,,,,,
4035,0.04,0.02,0.01,0.9995,-0.0136,0.0302,0,0,0,,,,,
4037,0.04,0.01,0,0.9994,-0.0136,0.0303,0,0,0,,,,,
4039,0.04,0.01,0,0.9996,-0.0137,0.0305,0,0,0,,,,,
4041,0.05,0,0,0.9996,-0.0137,0.0303,0,0,0,,,,,
4043,0.04,0,0.01,0.9995,-0.0138,0.0302,0,0,0,,,,,
4045,0.05,0,0.01,0.9996,-0.0137,0.0302,0,0,0,,,,,
4047,0.06,0,0.01,0.9998,-0.0137,0.0304,0,0,0,,,,,
,0.06,0,0.01,0.9997,-0.0136,0.0306,,,,,,,,
,0.05,0,0.02,0.9998,-0.0136,0.0306,,,,,,,,
,0.05,0,0.02,0.9998,-0.0139,0.0305,,,,,,,,
,0.06,0,0.02,0.9996,-0.014,0.0305,,,,,,,,
,0.06,0,0.02,0.9996,-0.0142,0.0304,,,,,,,,
,0.06,0,0.01,0.9996,-0.0142,0.0303,,,,,,,,
,0.05,0,0.01,0.9995,-0.0141,0.0302,,,,,,,,
,0.05,0,0.01,0.9992,-0.014,0.0301,,,,,,,,
,0.05,0,0,0.9991,-0.0139,0.03,,,,,,,,
,0.05,0,0,0.9992,-0.0139,0.0301,,,,,,,,
,0.05,0,0,0.9991,-0.0139,0.03,,,,,,,,
,0.05,0,0,0.9991,-0.014,0.03,,,,,,,,
,0.05,0,0,0.999,-0.0141,0.03,,,,,,,,
,0.05,0.01,0,0.999,-0.0143,0.0301,,,,,,,,
,0.05,0.01,0,0.999,-0.0144,0.03,,,,,,,,
,0.04,0.02,0,0.9989,-0.0145,0.0299,,,,,,,,
,0.04,0.02,0,0.999,-0.0147,0.0299,,,,,,,,
,0.04,0.02,0,0.9989,-0.0146,0.0301,,,,,,,,
,0.04,0.01,0,0.9991,-0.0145,0.0301,,,,,,,,
,0.04,0.02,0,0.9991,-0.0145,0.0303,,,,,,,,
,0.04,0.02,0,0.999,-0.0145,0.0304,,,,,,,,
,0.04,0.02,0,0.9992,-0.0146,0.0304,,,,,,,,
,0.04,0.02,0,0.9992,-0.0147,0.0306,,,,,,,,
,0.05,0.02,0,0.9993,-0.0147,0.0309,,,,,,,,
,0.05,0.03,0.01,0.9992,-0.0148,0.0308,,,,,,,,
,0.05,0.04,0.01,0.9992,-0.0148,0.0309,,,,,,,,
,0.05,0.04,0.01,0.9993,-0.0147,0.0311,,,,,,,,
,0.05,0.04,0.01,0.9994,-0.0146,0.0311,,,,,,,,
,0.05,0.04,0,0.9994,-0.0146,0.0313,,,,,,,,
,0.04,0.05,0,0.9992,-0.0146,0.0314,,,,,,,,
,0.05,0.05,0,0.9992,-0.0145,0.0316,,,,,,,,
,0.05,0.04,0.01,0.9991,-0.0145,0.0314,,,,,,,,
,0.06,0.05,0.01,0.9991,-0.0144,0.0313,,,,,,,,
,0.06,0.05,0.01,0.9989,-0.0144,0.0312,,,,,,,,
,0.06,0.05,0.02,0.9989,-0.0142,0.0313,,,,,,,,
,0.06,0.05,0.02,0.999,-0.0142,0.0313,,,,,,,,
,0.06,0.05,0.02,0.9991,-0.0142,0.0314,,,,,,,,
,0.06,0.06,0.02,0.9992,-0.014,0.0314,,,,,,,,
,0.06,0.06,0.02,0.9993,-0.014,0.031,,,,,,,,
,0.06,0.05,0.01,0.9992,-0.014,0.0309,,,,,,,,
,0.06,0.04,0.01,0.9992,-0.0139,0.0308,,,,,,,,
,0.06,0.04,0.01,0.9993,-0.0139,0.0307,,,,,,,,
,0.06,0.04,0.01,0.9992,-0.0139,0.0306,,,,,,,,
,0.06,0.04,0.01,0.9991,-0.0138,0.0304,,,,,,,,
,0.06,0.03,0.01,0.9991,-0.0138,0.0303,,,,,,,,
,0.06,0.02,0.02,0.9991,-0.0139,0.0302,,,,,,,,
,0.06,0.02,0.02,0.999,-0.0139,0.0303,,,,,,,,
,0.05,0.02,0.02,0.9988,-0.0139,0.0306,,,,,,,,
,0.05,0.02,0.02,0.999,-0.0139,0.0306,,,,,,,,
,0.05,0.02,0.02,0.9991,-0.0139,0.0305,,,,,,,,
,0.05,0.02,0.02,0.999,-0.0138,0.0305,,,,,,,,
,0.05,0.02,0.02,0.9988,-0.0137,0.0305,,,,,,,,
,0.05,0.02,0.01,0.9988,-0.0136,0.0306,,,,,,,,
,0.06,0.02,0.01,0.9986,-0.0136,0.0306,,,,,,,,
,0.06,0.02,0.01,0.9986,-0.0135,0.0306,,,,,,,,
,0.06,0.02,0.01,0.9986,-0.0135,0.0307,,,,,,,,
,0.06,0.01,0.01,0.9985,-0.0135,0.0307,,,,,,,,
,0.05,0.01,0.01,0.9985,-0.0134,0.0309,,,,,,,,
,0.05,0,0.01,0.9986,-0.0134,0.031,,,,,,,,
,0.05,0,0,0.9987,-0.0133,0.0309,,,,,,,,
,0.06,0.01,0,0.9988,-0.0134,0.0308,,,,,,,,
,0.06,0.01,0,0.999,-0.0134,0.0307,,,,,,,,
,0.07,0.01,-0.01,0.9992,-0.0134,0.0307,,,,,,,,
,0.07,0,-0.01,0.9991,-0.0134,0.0306,,,,,,,,
,0.07,0,-0.01,0.999,-0.0135,0.0306,,,,,,,,
,0.07,0,0,0.9989,-0.0135,0.0306,,,,,,,,
,0.07,0,0,0.999,-0.0137,0.0305,,,,,,,,
,0.07,0,0,0.9991,-0.014,0.0304,,,,,,,,
,0.06,0,0,0.9992,-0.0141,0.0306,,,,,,,,
,0.05,0,0.01,0.9993,-0.0141,0.0309,,,,,,,,
,0.05,0,0.01,0.9993,-0.0142,0.0309,,,,,,,,
,0.05,0,0.02,0.9994,-0.0143,0.0307,,,,,,,,
,0.05,-0.01,0.02,0.9997,-0.0144,0.0305,,,,,,,,
,0.05,0,0.01,0.9996,-0.0145,0.0304,,,,,,,,
,0.06,0,0.01,0.9998,-0.0144,0.0304,,,,,,,,
,0.05,-0.01,0.01,1,-0.0142,0.0306,,,,,,,,
,0.05,-0.01,0.02,1,-0.0141,0.0306,,,,,,,,
,0.05,-0.01,0.02,0.9999,-0.014,0.0306,,,,,,,,
,0.05,0,0.02,0.9999,-0.0139,0.0308,,,,,,,,
,0.05,0,0.02,1,-0.0139,0.0308,,,,,,,,
,0.05,0,0.02,0.9999,-0.0139,0.0307,,,,,,,,
,0.05,0,0.01,0.9999,-0.014,0.0307,,,,,,,,
,0.06,0,0.01,0.9999,-0.0139,0.0306,,,,,,,,
,0.06,0,0.01,0.9998,-0.0138,0.0305,,,,,,,,
,0.06,0,0.01,0.9999,-0.0138,0.0302,,,,,,,,
,0.06,0.01,0,0.9998,-0.0138,0.0302,,,,,,,,
,0.07,0.01,0,0.9996,-0.0138,0.0303,,,,,,,,
,0.06,0.03,0,0.9993,-0.0144,0.03,,,,,,,,
,0.06,0.04,0,0.9995,-0.0144,0.03,,,,,,,,
,0.06,0.04,0,0.9997,-0.0143,0.0299,,,,,,,,
,0.06,0.04,0.01,0.9998,-0.0143,0.0298,,,,,,,,
,0.06,0.04,0.01,0.9997,-0.0143,0.0297,,,,,,,,
,0.06,0.04,0.01,0.9997,-0.0144,0.0297,,,,,,,,
,0.06,0.04,0.01,0.9998,-0.0145,0.0299,,,,,,,,
,0.06,0.04,0.01,0.9999,-0.0143,0.0297,,,,,,,,
,0.06,0.04,0.02,0.9999,-0.0142,0.0296,,,,,,,,
,0.06,0.05,0.02,1,-0.0141,0.0297,,,,,,,,
,0.06,0.04,0.02,0.9999,-0.0141,0.0297,,,,,,,,
,0.06,0.05,0.02,0.9999,-0.014,0.03,,,,,,,,
,0.06,0.05,0.02,0.9999,-0.0139,0.03,,,,,,,,
,0.06,0.05,0.02,1,-0.0138,0.0301,,,,,,,,
,0.06,0.04,0.03,1,-0.0137,0.0301,,,,,,,,
,0.06,0.04,0.03,1,-0.0135,0.0302,,,,,,,,
,0.06,0.03,0.03,0.9998,-0.0134,0.0303,,,,,,,,
,0.06,0.02,0.02,0.9996,-0.0136,0.0305,,,,,,,,
,0.06,0.02,0.02,0.9995,-0.0137,0.0307,,,,,,,,
,0.06,0.02,0.02,0.9997,-0.0137,0.0306,,,,,,,,
,0.06,0.02,0.02,0.9997,-0.0137,0.0305,,,,,,,,
,0.06,0.01,0.02,0.9998,-0.0138,0.0305,,,,,,,,
,0.05,0.01,0.02,0.9999,-0.0139,0.0306,,,,,,,,
,0.05,0.01,0.01,1,-0.014,0.0306,,,,,,,,
,0.05,0,0.02,1,-0.0138,0.0303,,,,,,,,
,0.05,0.01,0.02,0.9998,-0.0139,0.0303,,,,,,,,
,0.06,0.02,0.02,1.0001,-0.0137,0.0301,,,,,,,,
,0.06,0.03,0.03,0.9998,-0.0138,0.0301,,,,,,,,
,0.06,0.03,0.04,0.9994,-0.0138,0.0299,,,,,,,,
,0.06,0.04,0.04,0.999,-0.0139,0.0299,,,,,,,,
,0.06,0.04,0.04,0.999,-0.0139,0.0298,,,,,,,,
,0.06,0.04,0.04,0.9988,-0.0141,0.0298,,,,,,,,
,0.06,0.05,0.04,0.999,-0.0139,0.0298,,,,,,,,
,0.06,0.05,0.04,0.9988,-0.0138,0.0297,,,,,,,,
,0.06,0.05,0.05,0.9987,-0.0137,0.0298,,,,,,,,
,0.06,0.04,0.04,0.9987,-0.0136,0.0299,,,,,,,,
,0.06,0.05,0.05,0.9986,-0.0137,0.0299,,,,,,,,
,0.06,0.05,0.05,0.9983,-0.0138,0.0298,,,,,,,,
,0.06,0.06,0.05,0.9982,-0.0139,0.0296,,,,,,,,
,0.06,0.06,0.05,0.998,-0.0141,0.0298,,,,,,,,
,0.05,0.06,0.04,0.9981,-0.0141,0.0297,,,,,,,,
,0.04,0.04,0.04,0.9978,-0.0145,0.0297,,,,,,,,
,0.04,0.03,0.03,0.9982,-0.0146,0.0298,,,,,,,,
,0.04,0.02,0.03,0.9982,-0.0148,0.0299,,,,,,,,
,0.04,0.02,0.02,0.9985,-0.0148,0.03,,,,,,,,
,0.04,0.02,0.02,0.9984,-0.0147,0.0304,,,,,,,,
,0.03,0.03,0.01,0.9986,-0.0147,0.0303,,,,,,,,
,0.03,0.03,0.01,0.9986,-0.0147,0.0302,,,,,,,,
,0.04,0.03,0.02,0.9988,-0.0148,0.0302,,,,,,,,
,0.04,0.04,0.01,0.999,-0.0149,0.0302,,,,,,,,
,0.04,0.04,0.02,0.9991,-0.015,0.0301,,,,,,,,
,0.04,0.04,0.01,0.9993,-0.015,0.0302,,,,,,,,
,0.04,0.04,0.01,0.9994,-0.0149,0.0302,,,,,,,,
,0.04,0.04,0.01,0.9995,-0.0149,0.0304,,,,,,,,
,0.04,0.04,0.02,0.9996,-0.0148,0.0304,,,,,,,,
,0.05,0.04,0.02,0.9996,-0.0147,0.0304,,,,,,,,
,0.05,0.04,0.01,0.9996,-0.0147,0.0305,,,,,,,,
,0.05,0.04,0.01,0.9997,-0.0146,0.0304,,,,,,,,
,0.05,0.04,0,0.9999,-0.0144,0.0304,,,,,,,,
,0.05,0.04,0,0.9999,-0.0142,0.0303,,,,,,,,
,0.06,0.04,0,1,-0.0142,0.0301,,,,,,,,
,0.06,0.04,0,1,-0.0142,0.03,,,,,,,,
,0.05,0.04,0,0.9998,-0.0142,0.0301,,,,,,,,
,0.04,0.04,0,0.9998,-0.014,0.0299,,,,,,,,
,0.04,0.04,0,0.9997,-0.0139,0.0298,,,,,,,,
,0.04,0.03,0,0.9996,-0.0139,0.0299,,,,,,,,
,0.03,0.03,0,0.9995,-0.0138,0.0299,,,,,,,,
,0.03,0.03,0,0.9995,-0.0137,0.0299,,,,,,,,
,0.03,0.04,0,0.9995,-0.0136,0.0298,,,,,,,,
,0.03,0.04,0,0.9996,-0.0134,0.03,,,,,,,,
,0.03,0.04,0,0.9995,-0.0132,0.0302,,,,,,,,
,0.03,0.04,0.01,0.9995,-0.0132,0.0302,,,,,,,,
,0.03,0.04,0.02,0.9995,-0.0132,0.0304,,,,,,,,
,0.03,0.04,0.02,0.9995,-0.0132,0.0306,,,,,,,,
,0.03,0.04,0.02,0.9995,-0.0134,0.0309,,,,,,,,
,0.02,0.03,0.03,0.9994,-0.0134,0.0312,,,,,,,,
,0.03,0.03,0.03,0.9995,-0.0135,0.0314,,,,,,,,
,0.03,0.02,0.02,0.9996,-0.0136,0.0313,,,,,,,,
,0.04,0.02,0.02,0.9995,-0.0137,0.0315,,,,,,,,
,0.04,0.02,0.02,0.9994,-0.0139,0.0316,,,,,,,,
,0.04,0.02,0.03,0.9996,-0.0139,0.0316,,,,,,,,
,0.05,0.02,0.03,0.9995,-0.0139,0.0316,,,,,,,,
,0.06,0.02,0.03,0.9994,-0.0141,0.0318,,,,,,,,
,0.06,0.02,0.03,0.9994,-0.0143,0.0319,,,,,,,,
,0.06,0.01,0.03,0.9994,-0.0145,0.0317,,,,,,,,
,0.06,0,0.03,0.9996,-0.0147,0.0315,,,,,,,,
,0.06,0,0.03,0.9997,-0.0148,0.0315,,,,,,,,
,0.06,0,0.03,0.9994,-0.0147,0.0314,,,,,,,,
,0.06,0.01,0.03,0.9992,-0.0147,0.0313,,,,,,,,
,0.05,0.01,0.03,0.9991,-0.0146,0.031,,,,,,,,
,0.05,0.02,0.02,0.999,-0.0146,0.0307,,,,,,,,
,0.05,0.02,0.02,0.9989,-0.0146,0.0304,,,,,,,,
,0.06,0.02,0.02,0.9989,-0.0144,0.0303,,,,,,,,
,0.06,0.02,0.02,0.9992,-0.0143,0.0304,,,,,,,,
,0.06,0.03,0.02,0.9991,-0.0143,0.0305,,,,,,,,
,0.06,0.03,0.02,0.9991,-0.0143,0.0303,,,,,,,,
,0.06,0.03,0.02,0.9991,-0.0144,0.0302,,,,,,,,
,0.05,0.02,0.02,0.999,-0.0143,0.0301,,,,,,,,
,0.05,0.02,0.02,0.9988,-0.0143,0.0301,,,,,,,,
,0.05,0.02,0.02,0.9986,-0.0143,0.0303,,,,,,,,
,0.05,0.03,0.02,0.9986,-0.0143,0.0305,,,,,,,,
,0.05,0.04,0.02,0.9986,-0.0143,0.0306,,,,,,,,
,0.06,0.04,0.01,0.9988,-0.0143,0.0306,,,,,,,,
,0.06,0.04,0.01,0.999,-0.0143,0.0305,,,,,,,,
,0.07,0.03,0.01,0.9991,-0.0142,0.0306,,,,,,,,
,0.07,0.03,0.01,0.9993,-0.0142,0.0305,,,,,,,,
,0.07,0.02,0.01,0.9994,-0.0141,0.0308,,,,,,,,
,0.06,0.02,0.01,0.9994,-0.014,0.0309,,,,,,,,
,0.06,0.02,0.02,0.9992,-0.0139,0.0308,,,,,,,,
,0.05,0.01,0.02,0.9992,-0.0138,0.0308,,,,,,,,
,0.05,0.01,0.01,0.9991,-0.0139,0.0309,,,,,,,,
,0.05,0.01,0.01,0.9991,-0.0138,0.0309,,,,,,,,
,0.05,0.02,0.01,0.9993,-0.014,0.0306,,,,,,,,
,0.06,0.02,0.01,0.9993,-0.0138,0.0302,,,,,,,,
,0.06,0.02,0,0.9994,-0.0138,0.03,,,,,,,,
,0.06,0.02,0,0.9994,-0.0137,0.0298,,,,,,,,
,0.06,0.02,0.01,0.9993,-0.0137,0.0297,,,,,,,,
,0.06,0.02,0.01,0.9994,-0.0137,0.0297,,,,,,,,
,0.06,0.02,0.01,0.9994,-0.0137,0.0298,,,,,,,,
,0.06,0.02,0.01,0.9993,-0.0137,0.0296,,,,,,,,
,0.05,0.02,0.01,0.9992,-0.0137,0.0297,,,,,,,,
,0.05,0.02,0.02,0.9992,-0.0137,0.0295,,,,,,,,
,0.06,0.03,0.02,0.9992,-0.0139,0.0294,,,,,,,,
,0.07,0.03,0.01,0.9992,-0.0141,0.0293,,,,,,,,
,0.07,0.04,0,0.9992,-0.0141,0.0292,,,,,,,,
,0.07,0.04,0,0.9993,-0.0141,0.0292,,,,,,,,
,0.07,0.04,0,0.9994,-0.0141,0.0292,,,,,,,,
,0.07,0.04,0,0.9992,-0.0139,0.0294,,,,,,,,
,0.07,0.04,-0.01,0.9993,-0.014,0.0296,,,,,,,,
,0.06,0.04,-0.01,0.9993,-0.0139,0.0298,,,,,,,,
,0.06,0.04,-0.02,0.9994,-0.014,0.0299,,,,,,,,
,0.06,0.04,-0.02,0.9993,-0.0139,0.0298,,,,,,,,
,0.05,0.04,-0.02,0.9993,-0.0139,0.0297,,,,,,,,
,0.04,0.03,-0.02,0.9992,-0.0139,0.0297,,,,,,,,
,0.04,0.03,-0.02,0.9991,-0.0139,0.0299,,,,,,,,
,0.04,0.04,-0.02,0.9993,-0.0139,0.0299,,,,,,,,
,0.04,0.04,-0.02,0.9994,-0.014,0.03,,,,,,,,
,0.04,0.04,-0.02,0.9995,-0.014,0.03,,,,,,,,
,0.04,0.04,-0.02,0.9995,-0.0138,0.0301,,,,,,,,
,0.04,0.04,-0.01,0.9994,-0.0138,0.0301,,,,,,,,
,0.04,0.05,-0.01,0.9995,-0.0139,0.03,,,,,,,,
,0.04,0.04,0,0.9996,-0.014,0.03,,,,,,,,
,0.04,0.05,0,0.9997,-0.0141,0.0301,,,,,,,,
,0.03,0.05,0.01,0.9998,-0.0141,0.03,,,,,,,,
,0.03,0.05,0.01,0.9998,-0.0141,0.0301,,,,,,,,
,0.03,0.05,0.02,0.9995,-0.0141,0.03,,,,,,,,
,0.03,0.05,0.02,0.9996,-0.0142,0.0302,,,,,,,,
,0.03,0.05,0.02,0.9994,-0.0142,0.0302,,,,,,,,
,0.04,0.05,0.02,0.9995,-0.0142,0.0302,,,,,,,,
,0.04,0.05,0.01,0.9996,-0.0144,0.0301,,,,,,,,
,0.04,0.05,0.01,0.9995,-0.0143,0.0299,,,,,,,,
,0.04,0.05,0.01,0.9993,-0.014,0.0298,,,,,,,,
,0.04,0.05,0.01,0.9992,-0.0141,0.0298,,,,,,,,
,0.04,0.04,0,0.9994,-0.014,0.0298,,,,,,,,
,0.04,0.04,0,0.9994,-0.0141,0.0297,,,,,,,,
,0.04,0.04,0,0.9994,-0.0141,0.0297,,,,,,,,
,0.04,0.05,0,0.9993,-0.014,0.0298,,,,,,,,
,0.04,0.04,0,0.9991,-0.014,0.0297,,,,,,,,
,0.04,0.04,0,0.999,-0.014,0.0298,,,,,,,,
,0.04,0.04,0,0.999,-0.0142,0.0295,,,,,,,,
,0.04,0.04,0,0.9992,-0.0141,0.0294,,,,,,,,
,0.04,0.04,0,0.9993,-0.0141,0.0292,,,,,,,,
,0.04,0.04,0,0.9994,-0.0142,0.0293,,,,,,,,
,-34.81,-19.06,-42.42,1.1827,0.1279,0.3128,,,,,,,,
,-29.31,-20.05,-41.55,1.1526,0.1299,0.2926,,,,,,,,
,-19.64,-21.8,-39.78,1.1003,0.1355,0.2845,,,,,,,,
,-6.91,-24.3,-33.79,1.0502,0.1489,0.2861,,,,,,,,
,-2.62,-24.72,-31.8,1.0324,0.1585,0.2904,,,,,,,,
,5.97,-22.41,-31.35,0.9888,0.1818,0.2977,,,,,,,,
,14.4,-19.48,-34.27,0.9593,0.2044,0.2997,,,,,,,,
,27.64,-20.85,-35.4,0.9168,0.2215,0.3066,,,,,,,,
,40.18,-22.02,-31.69,0.8776,0.2464,0.3146,,,,,,,,
,48.71,-19.54,-32.58,0.8515,0.2752,0.3148,,,,,,,,
,50.74,-18.64,-33.26,0.853,0.2812,0.3107,,,,,,,,
,54.44,-18.74,-31.77,0.8593,0.2792,0.3012,,,,,,,,
,56.01,-21.06,-27.93,0.8682,0.2726,0.298,,,,,,,,
,58.58,-24.46,-15.44,0.8858,0.2554,0.2894,,,,,,,,
,59.86,-26.89,-1.99,0.8938,0.252,0.2803,,,,,,,,
,59.71,-29.69,6.68,0.903,0.2636,0.2653,,,,,,,,
,59.88,-34.71,11.4,0.9177,0.2728,0.2434,,,,,,,,
,61.88,-41.05,14.28,0.9246,0.2742,0.2206,,,,,,,,
,67.06,-51.11,14.13,0.9026,0.2686,0.1892,,,,,,,,
,71.38,-54.72,8.57,0.8794,0.2646,0.1708,,,,,,,,
,79.6,-57.65,-6.45,0.8268,0.2566,0.1389,,,,,,,,
,89.29,-56.32,-18.28,0.7886,0.2291,0.1006,,,,,,,,
,91.98,-54.42,-21.15,0.7738,0.2194,0.0906,,,,,,,,
,95.99,-49.6,-26.02,0.7519,0.2054,0.0706,,,,,,,,
,98.93,-44.03,-27.97,0.7468,0.1919,0.0448,,,,,,,,
,101.53,-36.84,-23.7,0.7403,0.1724,0.0006,,,,,,,,
,103.02,-31.42,-13.92,0.7213,0.1765,-0.0471,,,,,,,,
,103.32,-26.1,-7.29,0.6903,0.1918,-0.0892,,,,,,,,
,103.46,-24.37,-5.89,0.6825,0.1943,-0.1041,,,,,,,,
,104.56,-21.15,-3.62,0.6688,0.1927,-0.1361,,,,,,,,
,105.49,-17.98,-3.21,0.6504,0.1834,-0.1625,,,,,,,,
,105.31,-11.62,-7.03,0.628,0.1548,-0.189,,,,,,,,
,104.16,-2.02,-11.36,0.6266,0.1191,-0.2072,,,,,,,,
,103.44,0.94,-12.34,0.6307,0.1027,-0.2119,,,,,,,,
,101.66,6.09,-13.13,0.6402,0.0674,-0.2207,,,,,,,,
,99.66,10.91,-12.51,0.645,0.03,-0.231,,,,,,,,
,98.43,13.64,-11.96,0.6436,0.0118,-0.2349,,,,,,,,
,94.93,19.79,-11.01,0.6378,-0.023,-0.2373,,,,,,,,
,88.48,30.08,-8.89,0.6426,-0.0571,-0.2398,,,,,,,,
,82.67,39.35,-7.53,0.6692,-0.0889,-0.2361,,,,,,,,
,80.78,41.9,-8.23,0.6792,-0.103,-0.2309,,,,,,,,
,76.29,46.16,-11.96,0.7037,-0.1361,-0.215,,,,,,,,
,73.27,47.9,-14.6,0.7176,-0.1547,-0.2062,,,,,,,,
,65.52,50.76,-19.31,0.7497,-0.1919,-0.1878,,,,,,,,
,56.64,52.81,-20.37,0.7878,-0.2194,-0.1728,,,,,,,,
,44.3,52.65,-14.49,0.8289,-0.2449,-0.153,,,,,,,,
,40.18,51.79,-12.11,0.8355,-0.2518,-0.1476,,,,,,,,
,31.31,49.45,-8.22,0.844,-0.2618,-0.1466,,,,,,,,
,21.85,47.56,-5.2,0.849,-0.2662,-0.1535,,,,,,,,
,7.96,48.17,-1.25,0.8581,-0.2551,-0.148,,,,,,,,
,-2.56,47.87,1.42,0.8965,-0.2332,-0.1424,,,,,,,,
,-4.74,46.57,2.09,0.9065,-0.2303,-0.1397,,,,,,,,
,-8.04,45.05,1.86,0.9183,-0.2315,-0.1344,,,,,,,,
,-9.92,45.33,0.62,0.9216,-0.2372,-0.1309,,,,,,,,
,-15.1,47.06,-2.56,0.9323,-0.2519,-0.1133,,,,,,,,
,-21.56,48.85,-3.17,0.9559,-0.2568,-0.0906,,,,,,,,
,-27.7,46.94,3.98,0.9895,-0.2442,-0.0777,,,,,,,,
,-30.38,43.37,6.49,0.973,-0.2241,-0.0626,,,,,,,,
,-32.21,43.32,4.31,0.9681,-0.2199,-0.0538,,,,,,,,
,-37.77,43.56,-0.65,0.973,-0.2118,-0.0303,,,,,,,,
,-40.45,43.13,-1.32,0.9836,-0.2086,-0.0195,,,,,,,,
,-43.9,40.93,1.66,1.0111,-0.1947,-0.0061,,,,,,,,
,-45.18,37.79,6.1,1.0275,-0.179,0.0053,,,,,,,,
,-47.8,33.63,8.7,1.0337,-0.1678,0.0368,,,,,,,,
,-49.58,32.4,10.07,1.0378,-0.1732,0.0508,,,,,,,,
,-53.9,29.37,17.33,1.0551,-0.1892,0.0709,,,,,,,,
,-58.09,24.96,34.95,1.085,-0.1963,0.0941,,,,,,,,
,-59.37,22.27,40.25,1.1034,-0.188,0.1061,,,,,,,,
,-60.21,20.45,40.12,1.1117,-0.1858,0.1126,,,,,,,,
,-62.25,16.02,37.94,1.1239,-0.1878,0.125,,,,,,,,
,-64.19,10.29,37.34,1.1434,-0.2067,0.1344,,,,,,,,
,-63.87,7.71,36.58,1.1642,-0.2062,0.1324,,,,,,,,
,-62.32,4.24,30.91,1.1797,-0.1923,0.1347,,,,,,,,
,-60.87,-0.09,22.21,1.1766,-0.193,0.1367,,,,,,,,
,-60.69,-3.67,17.7,1.1661,-0.2134,0.1346,,,,,,,,
,-60.84,-4.68,21.44,1.1535,-0.2293,0.1234,,,,,,,,
,-59.72,-5.11,22.2,1.1452,-0.2037,0.1198,,,,,,,,
,-57.43,-5.11,14.57,1.1248,-0.1804,0.1174,,,,,,,,
,-56.78,-3.04,13.02,1.1105,-0.1851,0.1122,,,,,,,,
,-54.63,1.66,17.57,1.0943,-0.1763,0.1116,,,,,,,,
,-51.81,5.38,16.47,1.0727,-0.1558,0.1173,,,,,,,,
,-50.82,6.76,14.53,1.0665,-0.1495,0.1197,,,,,,,,
,-49.63,10.92,10.38,1.0657,-0.1436,0.1247,,,,,,,,
,-48.59,14.63,7.7,1.0773,-0.1448,0.1219,,,,,,,,
,-47.21,18.22,4.07,1.0932,-0.1525,0.1313,,,,,,,,
,-46.07,19.69,1.33,1.1089,-0.1744,0.1345,,,,,,,,
,-46.67,20.21,-0.15,1.1207,-0.1765,0.1392,,,,,,,,
,-46.91,20.47,-0.83,1.1297,-0.1749,0.1416,,,,,,,,
,-47.12,20.38,-1.35,1.14,-0.1727,0.142,,,,,,,,
,-47.3,18.65,-1.23,1.1528,-0.1698,0.1422,,,,,,,,
,-46.88,17.19,-0.75,1.1522,-0.1704,0.1444,,,,,,,,
,-46.46,14.7,0.44,1.1403,-0.1845,0.1522,,,,,,,,
,-47.25,12.39,3.35,1.1297,-0.2033,0.1572,,,,,,,,
,-49.61,9.39,8.05,1.1301,-0.1926,0.1641,,,,,,,,
,-49.61,8.65,9.02,1.1312,-0.1836,0.1649,,,,,,,,
,-49.16,6.47,9.9,1.1299,-0.1759,0.1611,,,,,,,,
,-48.91,4.92,9.98,1.1245,-0.1767,0.1603,,,,,,,,
,-48.22,2.07,9.56,1.1059,-0.1839,0.1637,,,,,,,,
,-48.14,1.03,9,1.0961,-0.1893,0.1654,,,,,,,,
,-48.8,-0.95,8.19,1.0819,-0.1933,0.1677,,,,,,,,
,-49.18,-2.6,8.12,1.0692,-0.1735,0.1677,,,,,,,,
,-46.14,-4.42,6.54,1.0271,-0.1313,0.168,,,,,,,,
,-44.73,-5.13,4.96,1.0096,-0.1209,0.1679,,,,,,,,
,-42.21,-6.57,0.7,0.9728,-0.1027,0.1721,,,,,,,,
,-39.09,-6.52,-3.37,0.9375,-0.0797,0.1802,,,,,,,,
,-31.86,-3.38,-5.99,0.8982,-0.0446,0.1919,,,,,,,,
,-22.43,1.01,-4.67,0.8812,-0.0179,0.1964,,,,,,,,
,-15.6,3.63,-3.97,0.8748,-0.0094,0.2025,,,,,,,,
,-8.73,6.88,-5.11,0.8818,-0.0068,0.2081,,,,,,,,
,-1.71,10.05,-6.82,0.9037,-0.0149,0.2133,,,,,,,,
,5.38,12.44,-7.56,0.9382,-0.0342,0.2133,,,,,,,,
,14.88,13.86,-7.21,0.9933,-0.0676,0.2099,,,,,,,,
,22.24,12.55,-9.11,1.0314,-0.0909,0.2057,,,,,,,,
,26.93,11.78,-11.84,1.0474,-0.0987,0.202,,,,,,,,
,29.02,11.08,-13.26,1.0523,-0.1015,0.1998,,,,,,,,
,32.53,8.46,-15.3,1.0551,-0.1014,0.1953,,,,,,,,
,37,5.26,-16.51,1.0405,-0.0815,0.1903,,,,,,,,
,42.34,3.06,-16.07,1.0125,-0.0475,0.1907,,,,,,,,
,48.82,1.31,-13.97,0.994,-0.0172,0.1917,,,,,,,,
,51.12,0.54,-13.16,0.9887,-0.0098,0.1928,,,,,,,,
,55.4,-1.51,-11.61,0.9838,-0.0001,0.1964,,,,,,,,
,59.45,-3.21,-9.23,0.9895,-0.0019,0.1995,,,,,,,,
,65.83,-3.39,-3.38,1.0027,-0.0252,0.2031,,,,,,,,
,70.13,-3.65,1.96,1.0263,-0.0558,0.1987,,,,,,,,
,71.14,-3.93,3.34,1.0341,-0.0647,0.1983,,,,,,,,
,72.81,-4.66,4.88,1.0492,-0.0754,0.1974,,,,,,,,
,73.45,-4.86,4.76,1.0549,-0.078,0.1978,,,,,,,,
,74.75,-5.75,3.55,1.0677,-0.0816,0.1978,,,,,,,,
,75.38,-6.06,2.68,1.0725,-0.0825,0.1972,,,,,,,,
,76.76,-6.52,0.9,1.0765,-0.081,0.1959,,,,,,,,
,77.71,-6.34,-0.47,1.0772,-0.0752,0.1944,,,,,,,,
,79.61,-6.54,-2.34,1.074,-0.0486,0.1887,,,,,,,,
,81.68,-8.52,-5.64,1.0716,-0.0253,0.1872,,,,,,,,
,82.93,-8.68,-8.04,1.0679,-0.0155,0.187,,,,,,,,
,85.31,-8.12,-12.24,1.0632,-0.0055,0.1831,,,,,,,,
,86.74,-5.98,-9.34,1.0657,-0.0192,0.1698,,,,,,,,
,90.03,-4.83,0.39,1.0754,0.0017,0.161,,,,,,,,
,91.86,-5.2,0.15,1.0767,0.0108,0.1619,,,,,,,,
,94.94,-6.67,-5.97,1.0875,0.0054,0.1662,,,,,,,,
,96.59,-6.51,-13,1.1062,-0.0333,0.1681,,,,,,,,
